"ISI","ISI_extra","acc","accuracy","average_response_time","avg_rt","background","bidi","blank_dur","canvas_backend","clock_backend","color_backend","compensation","coordinates","correct","correct_instructions","correct_press","count_after_blank","count_blank","count_blank_1","count_block_loop","count_block_sequence","count_cross","count_cross_1","count_end_of_experiment","count_end_trigger_experiment","count_experiment","count_face","count_face_1","count_final","count_fixation_cross","count_instructions","count_logger","count_practice_loop","count_press","count_press_1","count_reset_feedback","count_settings","count_trial_sequence","count_trigger_experiment","count_trigger_practice","datetime","description","disable_garbage_collection","durface","experiment_file","experiment_path","face","fig","fix_dur","font_bold","font_family","font_italic","font_size","font_underline","foreground","form_clicks","fullscreen","height","keyboard_backend","live_row","live_row_block_loop","live_row_practice_loop","logfile","mouse_backend","opensesame_codename","opensesame_version","postfix_dur","practice","repeat_cycle","response","response_end_of_experiment","response_instructions","response_press","response_press_1","response_time","response_time_end_of_experiment","response_time_instructions","response_time_press","response_time_press_1","round_decimals","sampler_backend","sorted","sound_buf_size","sound_channels","sound_freq","sound_sample_size","start","subject_nr","subject_parity","test_mode","time_after_blank","time_blank","time_blank_1","time_block_loop","time_block_sequence","time_cross","time_cross_1","time_end_of_experiment","time_end_trigger_experiment","time_experiment","time_face","time_face_1","time_final","time_fixation_cross","time_instructions","time_logger","time_practice_loop","time_press","time_press_1","time_reset_feedback","time_settings","time_trial_sequence","time_trigger_experiment","time_trigger_practice","title","total_correct","total_response_time","total_responses","trials_to_pause","trigger_interval","uniform_coordinates","width"
"2232","16","undefined","undefined","undefined","undefined","#e6e6e6","yes","2500","xpyriment","legacy","legacy","0","uniform","undefined","undefined","undefined","0","NA","0","0","0","0","NA","0","0","0","0","0","0","0","0","0","0","0","0","0","0","0","0","0","Fr 01 Jun 2018 12:13:55 CEST","A template containing a practice and an experimental phase","yes","195","faces.osexp","/home/vlab-eeg2-linux/Desktop/countface","y","f021.gif","495","no","Courier New","no","32","no","black","no","yes","768","legacy","0","0","0","/home/vlab-eeg2-linux/Desktop/countface/subject-0-marie-faces-asaold.csv","xpyriment","Kafkaesque Koffka","3.2.2b1","495","yes","0","return","NA","return","return","NA","35881","NA","10549","35881","NA","2","legacy","","1024","2","48000","-16","experiment","0","even","no","53464","NA","50964","49853","49853","50250","NA","NA","NA","3310","50767","50767","NA","50250","3365","53464","49845","13918","NA","NA","3310","50218","NA","49799","Ingwer","0","0","0","42","45","yes","1024"
"2188","319","undefined","undefined","undefined","undefined","#e6e6e6","yes","2500","xpyriment","legacy","legacy","0","uniform","undefined","undefined","undefined","1","NA","1","0","0","1","NA","0","0","0","1","1","0","1","0","1","0","0","1","0","0","1","0","0","Fr 01 Jun 2018 12:13:55 CEST","A template containing a practice and an experimental phase","yes","195","faces.osexp","/home/vlab-eeg2-linux/Desktop/countface","n","image3.i.indoor.gif","495","no","Courier New","no","32","no","black","no","yes","768","legacy","1","1","0","/home/vlab-eeg2-linux/Desktop/countface/subject-0-marie-faces-asaold.csv","xpyriment","Kafkaesque Koffka","3.2.2b1","495","yes","0","return","NA","return","return","NA","35881","NA","10549","35881","NA","2","legacy","","1024","2","48000","-16","experiment","0","even","no","57476","NA","54976","49853","49853","53958","NA","NA","NA","3310","54778","54779","NA","53958","3365","57476","49845","13918","NA","NA","3310","53955","NA","49799","Ingwer","0","0","0","42","45","yes","1024"
"2033","209","undefined","undefined","undefined","undefined","#e6e6e6","yes","2500","xpyriment","legacy","legacy","0","uniform","undefined","undefined","undefined","2","NA","2","0","0","2","NA","0","0","0","2","2","0","2","0","2","0","0","2","0","0","2","0","0","Fr 01 Jun 2018 12:13:55 CEST","A template containing a practice and an experimental phase","yes","195","faces.osexp","/home/vlab-eeg2-linux/Desktop/countface","n","064.i.jpg","495","no","Courier New","no","32","no","black","no","yes","768","legacy","2","2","0","/home/vlab-eeg2-linux/Desktop/countface/subject-0-marie-faces-asaold.csv","xpyriment","Kafkaesque Koffka","3.2.2b1","495","yes","0","return","NA","return","return","NA","35881","NA","10549","35881","NA","2","legacy","","1024","2","48000","-16","experiment","0","even","no","61320","NA","58820","49853","49853","57913","NA","NA","NA","3310","58623","58623","NA","57913","3365","61320","49845","13918","NA","NA","3310","57910","NA","49799","Ingwer","0","0","0","42","45","yes","1024"
"2381","170","undefined","undefined","undefined","undefined","#e6e6e6","yes","2500","xpyriment","legacy","legacy","0","uniform","undefined","undefined","undefined","3","NA","3","0","0","3","NA","0","0","0","3","3","0","3","0","3","0","0","3","0","0","3","0","0","Fr 01 Jun 2018 12:13:55 CEST","A template containing a practice and an experimental phase","yes","195","faces.osexp","/home/vlab-eeg2-linux/Desktop/countface","n","037.i.jpg","495","no","Courier New","no","32","no","black","no","yes","768","legacy","3","3","0","/home/vlab-eeg2-linux/Desktop/countface/subject-0-marie-faces-asaold.csv","xpyriment","Kafkaesque Koffka","3.2.2b1","495","yes","0","return","NA","return","return","NA","35881","NA","10549","35881","NA","2","legacy","","1024","2","48000","-16","experiment","0","even","no","65137","NA","62637","49853","49853","61769","NA","NA","NA","3310","62440","62440","NA","61769","3365","65137","49845","13918","NA","NA","3310","61766","NA","49799","Ingwer","0","0","0","42","45","yes","1024"
"2451","406","undefined","undefined","undefined","undefined","#e6e6e6","yes","2500","xpyriment","legacy","legacy","0","uniform","undefined","undefined","undefined","4","NA","4","0","0","4","NA","0","0","0","4","4","0","4","0","4","0","0","4","0","0","4","0","0","Fr 01 Jun 2018 12:13:55 CEST","A template containing a practice and an experimental phase","yes","195","faces.osexp","/home/vlab-eeg2-linux/Desktop/countface","y","f085.gif","495","no","Courier New","no","32","no","black","no","yes","768","legacy","4","4","0","/home/vlab-eeg2-linux/Desktop/countface/subject-0-marie-faces-asaold.csv","xpyriment","Kafkaesque Koffka","3.2.2b1","495","yes","0","return","NA","return","return","NA","35881","NA","10549","35881","NA","2","legacy","","1024","2","48000","-16","experiment","0","even","no","69216","NA","66715","49853","49853","65608","NA","NA","NA","3310","66518","66518","NA","65608","3365","69216","49845","13918","NA","NA","3310","65604","NA","49799","Ingwer","0","0","0","42","45","yes","1024"
"2359","493","undefined","undefined","undefined","undefined","#e6e6e6","yes","2500","xpyriment","legacy","legacy","0","uniform","undefined","undefined","undefined","5","NA","5","0","0","5","NA","0","0","0","5","5","0","5","0","5","0","0","5","0","0","5","0","0","Fr 01 Jun 2018 12:13:55 CEST","A template containing a practice and an experimental phase","yes","195","faces.osexp","/home/vlab-eeg2-linux/Desktop/countface","n","049.i.jpg","495","no","Courier New","no","32","no","black","no","yes","768","legacy","5","5","0","/home/vlab-eeg2-linux/Desktop/countface/subject-0-marie-faces-asaold.csv","xpyriment","Kafkaesque Koffka","3.2.2b1","495","yes","0","return","NA","return","return","NA","35881","NA","10549","35881","NA","2","legacy","","1024","2","48000","-16","experiment","0","even","no","73368","NA","70868","49853","49853","69677","NA","NA","NA","3310","70671","70671","NA","69677","3365","73368","49845","13918","NA","NA","3310","69673","NA","49799","Ingwer","0","0","0","42","45","yes","1024"
"2101","435","undefined","undefined","undefined","undefined","#e6e6e6","yes","2500","xpyriment","legacy","legacy","0","uniform","undefined","undefined","undefined","6","NA","6","0","0","6","NA","0","0","0","6","6","0","6","0","6","0","0","6","0","0","6","0","0","Fr 01 Jun 2018 12:13:55 CEST","A template containing a practice and an experimental phase","yes","195","faces.osexp","/home/vlab-eeg2-linux/Desktop/countface","n","image12.i.fen.gif","495","no","Courier New","no","32","no","black","no","yes","768","legacy","6","6","0","/home/vlab-eeg2-linux/Desktop/countface/subject-0-marie-faces-asaold.csv","xpyriment","Kafkaesque Koffka","3.2.2b1","495","yes","0","return","NA","return","return","NA","35881","NA","10549","35881","NA","2","legacy","","1024","2","48000","-16","experiment","0","even","no","77464","NA","74964","49853","49853","73831","NA","NA","NA","3310","74767","74767","NA","73831","3365","77465","49845","13918","NA","NA","3310","73828","NA","49799","Ingwer","0","0","0","42","45","yes","1024"
"2086","194","undefined","undefined","undefined","undefined","#e6e6e6","yes","2500","xpyriment","legacy","legacy","0","uniform","undefined","undefined","undefined","7","NA","7","0","0","7","NA","0","0","0","7","7","0","7","0","7","0","0","7","0","0","7","0","0","Fr 01 Jun 2018 12:13:55 CEST","A template containing a practice and an experimental phase","yes","195","faces.osexp","/home/vlab-eeg2-linux/Desktop/countface","y","m068.gif","495","no","Courier New","no","32","no","black","no","yes","768","legacy","7","7","0","/home/vlab-eeg2-linux/Desktop/countface/subject-0-marie-faces-asaold.csv","xpyriment","Kafkaesque Koffka","3.2.2b1","495","yes","0","return","NA","return","return","NA","35881","NA","10549","35881","NA","2","legacy","","1024","2","48000","-16","experiment","0","even","no","81303","NA","78803","49853","49853","77911","NA","NA","NA","3310","78606","78606","NA","77911","3365","81303","49845","13918","NA","NA","3310","77908","NA","49799","Ingwer","0","0","0","42","45","yes","1024"
"2017","238","undefined","undefined","undefined","undefined","#e6e6e6","yes","2500","xpyriment","legacy","legacy","0","uniform","undefined","undefined","undefined","8","NA","8","0","0","8","NA","0","0","0","8","8","0","8","0","8","0","0","8","0","0","8","0","0","Fr 01 Jun 2018 12:13:55 CEST","A template containing a practice and an experimental phase","yes","195","faces.osexp","/home/vlab-eeg2-linux/Desktop/countface","y","f041.gif","495","no","Courier New","no","32","no","black","no","yes","768","legacy","8","8","0","/home/vlab-eeg2-linux/Desktop/countface/subject-0-marie-faces-asaold.csv","xpyriment","Kafkaesque Koffka","3.2.2b1","495","yes","0","return","NA","return","return","NA","35881","NA","10549","35881","NA","2","legacy","","1024","2","48000","-16","experiment","0","even","no","85202","NA","82702","49853","49853","81766","NA","NA","NA","3310","82505","82505","NA","81765","3365","85202","49845","13918","NA","NA","3310","81762","NA","49799","Ingwer","0","0","0","42","45","yes","1024"
"2444","96","undefined","undefined","undefined","undefined","#e6e6e6","yes","2500","xpyriment","legacy","legacy","0","uniform","undefined","undefined","undefined","9","NA","9","0","0","9","NA","0","0","0","9","9","0","9","0","9","0","0","9","0","0","9","0","0","Fr 01 Jun 2018 12:13:55 CEST","A template containing a practice and an experimental phase","yes","195","faces.osexp","/home/vlab-eeg2-linux/Desktop/countface","y","f081.gif","495","no","Courier New","no","32","no","black","no","yes","768","legacy","9","9","0","/home/vlab-eeg2-linux/Desktop/countface/subject-0-marie-faces-asaold.csv","xpyriment","Kafkaesque Koffka","3.2.2b1","495","yes","0","return","NA","return","return","NA","35881","NA","10549","35881","NA","2","legacy","","1024","2","48000","-16","experiment","0","even","no","88958","NA","86458","49853","49853","85662","NA","NA","NA","3310","86261","86261","NA","85662","3365","88958","49845","13918","NA","NA","3310","85658","NA","49799","Ingwer","0","0","0","42","45","yes","1024"
"2279","267","undefined","undefined","undefined","undefined","#e6e6e6","yes","2500","xpyriment","legacy","legacy","0","uniform","undefined","undefined","undefined","10","NA","10","0","0","10","NA","0","0","0","10","10","0","10","0","10","0","0","10","0","0","10","0","0","Fr 01 Jun 2018 12:13:55 CEST","A template containing a practice and an experimental phase","yes","195","faces.osexp","/home/vlab-eeg2-linux/Desktop/countface","n","062.i.jpg","495","no","Courier New","no","32","no","black","no","yes","768","legacy","10","10","0","/home/vlab-eeg2-linux/Desktop/countface/subject-0-marie-faces-asaold.csv","xpyriment","Kafkaesque Koffka","3.2.2b1","495","yes","0","return","NA","return","return","NA","35881","NA","10549","35881","NA","2","legacy","","1024","2","48000","-16","experiment","0","even","no","92884","NA","90384","49853","49853","89418","NA","NA","NA","3310","90186","90186","NA","89418","3365","92884","49845","13918","NA","NA","3310","89414","NA","49799","Ingwer","0","0","0","42","45","yes","1024"
"2134","12","undefined","undefined","undefined","undefined","#e6e6e6","yes","2500","xpyriment","legacy","legacy","0","uniform","undefined","undefined","undefined","11","NA","11","0","0","11","NA","0","0","0","11","11","0","11","0","11","0","0","11","0","0","11","0","0","Fr 01 Jun 2018 12:13:55 CEST","A template containing a practice and an experimental phase","yes","195","faces.osexp","/home/vlab-eeg2-linux/Desktop/countface","y","m066.gif","495","no","Courier New","no","32","no","black","no","yes","768","legacy","11","11","0","/home/vlab-eeg2-linux/Desktop/countface/subject-0-marie-faces-asaold.csv","xpyriment","Kafkaesque Koffka","3.2.2b1","495","yes","0","return","NA","return","return","NA","35881","NA","10549","35881","NA","2","legacy","","1024","2","48000","-16","experiment","0","even","no","96523","NA","94023","49853","49853","93313","NA","NA","NA","3310","93826","93826","NA","93313","3365","96523","49845","13918","NA","NA","3310","93310","NA","49799","Ingwer","0","0","0","42","45","yes","1024"
"2158","497","undefined","undefined","undefined","undefined","#e6e6e6","yes","2500","xpyriment","legacy","legacy","0","uniform","undefined","undefined","undefined","12","NA","12","0","0","12","NA","0","0","0","12","12","0","12","0","12","0","0","12","0","0","12","0","0","Fr 01 Jun 2018 12:13:55 CEST","A template containing a practice and an experimental phase","yes","195","faces.osexp","/home/vlab-eeg2-linux/Desktop/countface","n","011.i.jpg","495","no","Courier New","no","32","no","black","no","yes","768","legacy","12","12","0","/home/vlab-eeg2-linux/Desktop/countface/subject-0-marie-faces-asaold.csv","xpyriment","Kafkaesque Koffka","3.2.2b1","495","yes","0","return","NA","return","return","NA","35881","NA","10549","35881","NA","2","legacy","","1024","2","48000","-16","experiment","0","even","no","100664","NA","98164","49853","49853","96968","NA","NA","NA","3310","97966","97967","NA","96968","3365","100664","49845","13918","NA","NA","3310","96965","NA","49799","Ingwer","0","0","0","42","45","yes","1024"
"2468","287","undefined","undefined","undefined","undefined","#e6e6e6","yes","2500","xpyriment","legacy","legacy","0","uniform","undefined","undefined","undefined","13","NA","13","0","0","13","NA","0","0","0","13","13","0","13","0","13","0","0","13","0","0","13","0","0","Fr 01 Jun 2018 12:13:55 CEST","A template containing a practice and an experimental phase","yes","195","faces.osexp","/home/vlab-eeg2-linux/Desktop/countface","n","stereo14.gif","495","no","Courier New","no","32","no","black","no","yes","768","legacy","13","13","0","/home/vlab-eeg2-linux/Desktop/countface/subject-0-marie-faces-asaold.csv","xpyriment","Kafkaesque Koffka","3.2.2b1","495","yes","0","return","NA","return","return","NA","35881","NA","10549","35881","NA","2","legacy","","1024","2","48000","-16","experiment","0","even","no","104588","NA","102088","49853","49853","101102","NA","NA","NA","3310","101890","101891","NA","101102","3365","104588","49845","13918","NA","NA","3310","101099","NA","49799","Ingwer","0","0","0","42","45","yes","1024"
"2408","487","undefined","undefined","undefined","undefined","#e6e6e6","yes","2500","xpyriment","legacy","legacy","0","uniform","undefined","undefined","undefined","14","NA","14","0","0","14","NA","0","0","0","14","14","0","14","0","14","0","0","14","0","0","14","0","0","Fr 01 Jun 2018 12:13:55 CEST","A template containing a practice and an experimental phase","yes","195","faces.osexp","/home/vlab-eeg2-linux/Desktop/countface","n","042.i.jpg","495","no","Courier New","no","32","no","black","no","yes","768","legacy","14","14","0","/home/vlab-eeg2-linux/Desktop/countface/subject-0-marie-faces-asaold.csv","xpyriment","Kafkaesque Koffka","3.2.2b1","495","yes","0","return","NA","return","return","NA","35881","NA","10549","35881","NA","2","legacy","","1024","2","48000","-16","experiment","0","even","no","108718","NA","106218","49853","49853","105032","NA","NA","NA","3310","106021","106021","NA","105032","3365","108718","49845","13918","NA","NA","3310","105029","NA","49799","Ingwer","0","0","0","42","45","yes","1024"
"2421","6","undefined","undefined","undefined","undefined","#e6e6e6","yes","2500","xpyriment","legacy","legacy","0","uniform","undefined","undefined","undefined","15","NA","15","0","0","15","NA","0","0","0","15","15","0","15","0","15","0","0","15","0","0","15","0","0","Fr 01 Jun 2018 12:13:55 CEST","A template containing a practice and an experimental phase","yes","195","faces.osexp","/home/vlab-eeg2-linux/Desktop/countface","n","image3.i.fen.gif","495","no","Courier New","no","32","no","black","no","yes","768","legacy","15","15","0","/home/vlab-eeg2-linux/Desktop/countface/subject-0-marie-faces-asaold.csv","xpyriment","Kafkaesque Koffka","3.2.2b1","495","yes","0","return","NA","return","return","NA","35881","NA","10549","35881","NA","2","legacy","","1024","2","48000","-16","experiment","0","even","no","112377","NA","109877","49853","49853","109173","NA","NA","NA","3310","109680","109680","NA","109172","3365","112377","49845","13918","NA","NA","3310","109169","NA","49799","Ingwer","0","0","0","42","45","yes","1024"
"2170","490","undefined","undefined","undefined","undefined","#e6e6e6","yes","2500","xpyriment","legacy","legacy","0","uniform","undefined","undefined","undefined","16","NA","16","0","0","16","NA","0","0","0","16","16","0","16","0","16","0","0","16","0","0","16","0","0","Fr 01 Jun 2018 12:13:55 CEST","A template containing a practice and an experimental phase","yes","195","faces.osexp","/home/vlab-eeg2-linux/Desktop/countface","y","f037.gif","495","no","Courier New","no","32","no","black","no","yes","768","legacy","16","16","0","/home/vlab-eeg2-linux/Desktop/countface/subject-0-marie-faces-asaold.csv","xpyriment","Kafkaesque Koffka","3.2.2b1","495","yes","0","return","NA","return","return","NA","35881","NA","10549","35881","NA","2","legacy","","1024","2","48000","-16","experiment","0","even","no","116503","NA","114003","49853","49853","112814","NA","NA","NA","3310","113806","113806","NA","112814","3365","116503","49845","13918","NA","NA","3310","112811","NA","49799","Ingwer","0","0","0","42","45","yes","1024"
"2484","119","undefined","undefined","undefined","undefined","#e6e6e6","yes","2500","xpyriment","legacy","legacy","0","uniform","undefined","undefined","undefined","17","NA","17","0","0","17","NA","0","0","0","17","17","0","17","0","17","0","0","17","0","0","17","0","0","Fr 01 Jun 2018 12:13:55 CEST","A template containing a practice and an experimental phase","yes","195","faces.osexp","/home/vlab-eeg2-linux/Desktop/countface","y","f082.gif","495","no","Courier New","no","32","no","black","no","yes","768","legacy","17","17","0","/home/vlab-eeg2-linux/Desktop/countface/subject-0-marie-faces-asaold.csv","xpyriment","Kafkaesque Koffka","3.2.2b1","495","yes","0","return","NA","return","return","NA","35881","NA","10549","35881","NA","2","legacy","","1024","2","48000","-16","experiment","0","even","no","120255","NA","117755","49853","49853","116937","NA","NA","NA","3310","117557","117557","NA","116937","3365","120255","49845","13918","NA","NA","3310","116934","NA","49799","Ingwer","0","0","0","42","45","yes","1024"
"2268","407","undefined","undefined","undefined","undefined","#e6e6e6","yes","2500","xpyriment","legacy","legacy","0","uniform","undefined","undefined","undefined","18","NA","18","0","0","18","NA","0","0","0","18","18","0","18","0","18","0","0","18","0","0","18","0","0","Fr 01 Jun 2018 12:13:55 CEST","A template containing a practice and an experimental phase","yes","195","faces.osexp","/home/vlab-eeg2-linux/Desktop/countface","y","m099.gif","495","no","Courier New","no","32","no","black","no","yes","768","legacy","18","18","0","/home/vlab-eeg2-linux/Desktop/countface/subject-0-marie-faces-asaold.csv","xpyriment","Kafkaesque Koffka","3.2.2b1","495","yes","0","return","NA","return","return","NA","35881","NA","10549","35881","NA","2","legacy","","1024","2","48000","-16","experiment","0","even","no","124309","NA","121809","49853","49853","120704","NA","NA","NA","3310","121612","121612","NA","120704","3365","124309","49845","13918","NA","NA","3310","120700","NA","49799","Ingwer","0","0","0","42","45","yes","1024"
"2464","58","undefined","undefined","undefined","undefined","#e6e6e6","yes","2500","xpyriment","legacy","legacy","0","uniform","undefined","undefined","undefined","19","NA","19","0","0","19","NA","0","0","0","19","19","0","19","0","19","0","0","19","0","0","19","0","0","Fr 01 Jun 2018 12:13:55 CEST","A template containing a practice and an experimental phase","yes","195","faces.osexp","/home/vlab-eeg2-linux/Desktop/countface","n","003.i.jpg","495","no","Courier New","no","32","no","black","no","yes","768","legacy","19","19","0","/home/vlab-eeg2-linux/Desktop/countface/subject-0-marie-faces-asaold.csv","xpyriment","Kafkaesque Koffka","3.2.2b1","495","yes","0","return","NA","return","return","NA","35881","NA","10549","35881","NA","2","legacy","","1024","2","48000","-16","experiment","0","even","no","128010","NA","125509","49853","49853","124753","NA","NA","NA","3310","125312","125312","NA","124752","3365","128010","49845","13918","NA","NA","3310","124749","NA","49799","Ingwer","0","0","0","42","45","yes","1024"
"2165","378","undefined","undefined","undefined","undefined","#e6e6e6","yes","2500","xpyriment","legacy","legacy","0","uniform","undefined","undefined","undefined","20","NA","20","0","0","20","NA","0","0","0","20","20","0","20","0","20","0","0","20","0","0","20","0","0","Fr 01 Jun 2018 12:13:55 CEST","A template containing a practice and an experimental phase","yes","195","faces.osexp","/home/vlab-eeg2-linux/Desktop/countface","y","f093.gif","495","no","Courier New","no","32","no","black","no","yes","768","legacy","20","20","0","/home/vlab-eeg2-linux/Desktop/countface/subject-0-marie-faces-asaold.csv","xpyriment","Kafkaesque Koffka","3.2.2b1","495","yes","0","return","NA","return","return","NA","35881","NA","10549","35881","NA","2","legacy","","1024","2","48000","-16","experiment","0","even","no","132043","NA","129543","49853","49853","128467","NA","NA","NA","3310","129346","129346","NA","128466","3365","132043","49845","13918","NA","NA","3310","128463","NA","49799","Ingwer","0","0","0","42","45","yes","1024"
"2086","199","undefined","undefined","undefined","undefined","#e6e6e6","yes","2500","xpyriment","legacy","legacy","0","uniform","undefined","undefined","undefined","21","NA","21","0","0","21","NA","0","0","0","21","21","0","21","0","21","0","0","21","0","0","21","0","0","Fr 01 Jun 2018 12:13:55 CEST","A template containing a practice and an experimental phase","yes","195","faces.osexp","/home/vlab-eeg2-linux/Desktop/countface","y","m076.gif","495","no","Courier New","no","32","no","black","no","yes","768","legacy","21","21","0","/home/vlab-eeg2-linux/Desktop/countface/subject-0-marie-faces-asaold.csv","xpyriment","Kafkaesque Koffka","3.2.2b1","495","yes","0","return","NA","return","return","NA","35881","NA","10549","35881","NA","2","legacy","","1024","2","48000","-16","experiment","0","even","no","135889","NA","133389","49853","49853","132491","NA","NA","NA","3310","133191","133191","NA","132491","3365","135889","49845","13918","NA","NA","3310","132488","NA","49799","Ingwer","0","0","0","42","45","yes","1024"
"2359","492","undefined","undefined","undefined","undefined","#e6e6e6","yes","2500","xpyriment","legacy","legacy","0","uniform","undefined","undefined","undefined","22","NA","22","0","0","22","NA","0","0","0","22","22","0","22","0","22","0","0","22","0","0","22","0","0","Fr 01 Jun 2018 12:13:55 CEST","A template containing a practice and an experimental phase","yes","195","faces.osexp","/home/vlab-eeg2-linux/Desktop/countface","n","023.i.jpg","495","no","Courier New","no","32","no","black","no","yes","768","legacy","22","22","0","/home/vlab-eeg2-linux/Desktop/countface/subject-0-marie-faces-asaold.csv","xpyriment","Kafkaesque Koffka","3.2.2b1","495","yes","0","return","NA","return","return","NA","35881","NA","10549","35881","NA","2","legacy","","1024","2","48000","-16","experiment","0","even","no","140027","NA","137527","49853","49853","136337","NA","NA","NA","3310","137330","137330","NA","136337","3365","140027","49845","13918","NA","NA","3310","136333","NA","49799","Ingwer","0","0","0","42","45","yes","1024"
"2244","199","undefined","undefined","undefined","undefined","#e6e6e6","yes","2500","xpyriment","legacy","legacy","0","uniform","undefined","undefined","undefined","23","NA","23","0","0","23","NA","0","0","0","23","23","0","23","0","23","0","0","23","0","0","23","0","0","Fr 01 Jun 2018 12:13:55 CEST","A template containing a practice and an experimental phase","yes","195","faces.osexp","/home/vlab-eeg2-linux/Desktop/countface","y","m060.gif","495","no","Courier New","no","32","no","black","no","yes","768","legacy","23","23","0","/home/vlab-eeg2-linux/Desktop/countface/subject-0-marie-faces-asaold.csv","xpyriment","Kafkaesque Koffka","3.2.2b1","495","yes","0","return","NA","return","return","NA","35881","NA","10549","35881","NA","2","legacy","","1024","2","48000","-16","experiment","0","even","no","143874","NA","141374","49853","49853","140476","NA","NA","NA","3310","141176","141176","NA","140476","3365","143874","49845","13918","NA","NA","3310","140473","NA","49799","Ingwer","0","0","0","42","45","yes","1024"
"2351","100","undefined","undefined","undefined","undefined","#e6e6e6","yes","2500","xpyriment","legacy","legacy","0","uniform","undefined","undefined","undefined","24","NA","24","0","0","24","NA","0","0","0","24","24","0","24","0","24","0","0","24","0","0","24","0","0","Fr 01 Jun 2018 12:13:55 CEST","A template containing a practice and an experimental phase","yes","195","faces.osexp","/home/vlab-eeg2-linux/Desktop/countface","y","m073.gif","495","no","Courier New","no","32","no","black","no","yes","768","legacy","24","24","0","/home/vlab-eeg2-linux/Desktop/countface/subject-0-marie-faces-asaold.csv","xpyriment","Kafkaesque Koffka","3.2.2b1","495","yes","0","return","NA","return","return","NA","35881","NA","10549","35881","NA","2","legacy","","1024","2","48000","-16","experiment","0","even","no","147612","NA","145112","49853","49853","144314","NA","NA","NA","3310","144915","144915","NA","144314","3365","147612","49845","13918","NA","NA","3310","144311","NA","49799","Ingwer","0","0","0","42","45","yes","1024"
"2233","264","undefined","undefined","undefined","undefined","#e6e6e6","yes","2500","xpyriment","legacy","legacy","0","uniform","undefined","undefined","undefined","25","NA","25","0","0","25","NA","0","0","0","25","25","0","25","0","25","0","0","25","0","0","25","0","0","Fr 01 Jun 2018 12:13:55 CEST","A template containing a practice and an experimental phase","yes","195","faces.osexp","/home/vlab-eeg2-linux/Desktop/countface","y","m064.gif","495","no","Courier New","no","32","no","black","no","yes","768","legacy","25","25","0","/home/vlab-eeg2-linux/Desktop/countface/subject-0-marie-faces-asaold.csv","xpyriment","Kafkaesque Koffka","3.2.2b1","495","yes","0","return","NA","return","return","NA","35881","NA","10549","35881","NA","2","legacy","","1024","2","48000","-16","experiment","0","even","no","151510","NA","149010","49853","49853","148048","NA","NA","NA","3310","148813","148813","NA","148048","3365","151510","49845","13918","NA","NA","3310","148044","NA","49799","Ingwer","0","0","0","42","45","yes","1024"
"2065","375","undefined","undefined","undefined","undefined","#e6e6e6","yes","2500","xpyriment","legacy","legacy","0","uniform","undefined","undefined","undefined","26","NA","26","0","0","26","NA","0","0","0","26","26","0","26","0","26","0","0","26","0","0","26","0","0","Fr 01 Jun 2018 12:13:55 CEST","A template containing a practice and an experimental phase","yes","195","faces.osexp","/home/vlab-eeg2-linux/Desktop/countface","y","m056.gif","495","no","Courier New","no","32","no","black","no","yes","768","legacy","26","26","0","/home/vlab-eeg2-linux/Desktop/countface/subject-0-marie-faces-asaold.csv","xpyriment","Kafkaesque Koffka","3.2.2b1","495","yes","0","return","NA","return","return","NA","35881","NA","10549","35881","NA","2","legacy","","1024","2","48000","-16","experiment","0","even","no","155535","NA","153035","49853","49853","151961","NA","NA","NA","3310","152838","152838","NA","151961","3365","155535","49845","13918","NA","NA","3310","151958","NA","49799","Ingwer","0","0","0","42","45","yes","1024"
"2090","111","undefined","undefined","undefined","undefined","#e6e6e6","yes","2500","xpyriment","legacy","legacy","0","uniform","undefined","undefined","undefined","27","NA","27","0","0","27","NA","0","0","0","27","27","0","27","0","27","0","0","27","0","0","27","0","0","Fr 01 Jun 2018 12:13:55 CEST","A template containing a practice and an experimental phase","yes","195","faces.osexp","/home/vlab-eeg2-linux/Desktop/countface","y","m095.gif","495","no","Courier New","no","32","no","black","no","yes","768","legacy","27","27","0","/home/vlab-eeg2-linux/Desktop/countface/subject-0-marie-faces-asaold.csv","xpyriment","Kafkaesque Koffka","3.2.2b1","495","yes","0","return","NA","return","return","NA","35881","NA","10549","35881","NA","2","legacy","","1024","2","48000","-16","experiment","0","even","no","159290","NA","156790","49853","49853","155980","NA","NA","NA","3310","156592","156593","NA","155979","3365","159290","49845","13918","NA","NA","3310","155976","NA","49799","Ingwer","0","0","0","42","45","yes","1024"
"2169","105","undefined","undefined","undefined","undefined","#e6e6e6","yes","2500","xpyriment","legacy","legacy","0","uniform","undefined","undefined","undefined","28","NA","28","0","0","28","NA","0","0","0","28","28","0","28","0","28","0","0","28","0","0","28","0","0","Fr 01 Jun 2018 12:13:55 CEST","A template containing a practice and an experimental phase","yes","195","faces.osexp","/home/vlab-eeg2-linux/Desktop/countface","n","image10.i.indoor.gif","495","no","Courier New","no","32","no","black","no","yes","768","legacy","28","28","0","/home/vlab-eeg2-linux/Desktop/countface/subject-0-marie-faces-asaold.csv","xpyriment","Kafkaesque Koffka","3.2.2b1","495","yes","0","return","NA","return","return","NA","35881","NA","10549","35881","NA","2","legacy","","1024","2","48000","-16","experiment","0","even","no","163047","NA","160547","49853","49853","159743","NA","NA","NA","3310","160350","160350","NA","159743","3365","163047","49845","13918","NA","NA","3310","159740","NA","49799","Ingwer","0","0","0","42","45","yes","1024"
"2219","278","undefined","undefined","undefined","undefined","#e6e6e6","yes","2500","xpyriment","legacy","legacy","0","uniform","undefined","undefined","undefined","29","NA","29","0","0","29","NA","0","0","0","29","29","0","29","0","29","0","0","29","0","0","29","0","0","Fr 01 Jun 2018 12:13:55 CEST","A template containing a practice and an experimental phase","yes","195","faces.osexp","/home/vlab-eeg2-linux/Desktop/countface","n","055.i.jpg","495","no","Courier New","no","32","no","black","no","yes","768","legacy","29","29","0","/home/vlab-eeg2-linux/Desktop/countface/subject-0-marie-faces-asaold.csv","xpyriment","Kafkaesque Koffka","3.2.2b1","495","yes","0","return","NA","return","return","NA","35881","NA","10549","35881","NA","2","legacy","","1024","2","48000","-16","experiment","0","even","no","166979","NA","164478","49853","49853","163500","NA","NA","NA","3310","164281","164281","NA","163500","3365","166979","49845","13918","NA","NA","3310","163497","NA","49799","Ingwer","0","0","0","42","45","yes","1024"
"2038","131","undefined","undefined","undefined","undefined","#e6e6e6","yes","2500","xpyriment","legacy","legacy","0","uniform","undefined","undefined","undefined","30","NA","30","0","0","30","NA","0","0","0","30","30","0","30","0","30","0","0","30","0","0","30","0","0","Fr 01 Jun 2018 12:13:55 CEST","A template containing a practice and an experimental phase","yes","195","faces.osexp","/home/vlab-eeg2-linux/Desktop/countface","y","m069.gif","495","no","Courier New","no","32","no","black","no","yes","768","legacy","30","30","0","/home/vlab-eeg2-linux/Desktop/countface/subject-0-marie-faces-asaold.csv","xpyriment","Kafkaesque Koffka","3.2.2b1","495","yes","0","return","NA","return","return","NA","35881","NA","10549","35881","NA","2","legacy","","1024","2","48000","-16","experiment","0","even","no","170745","NA","168245","49853","49853","167415","NA","NA","NA","3310","168048","168048","NA","167415","3365","170745","49845","13918","NA","NA","3310","167412","NA","49799","Ingwer","0","0","0","42","45","yes","1024"
"2312","488","undefined","undefined","undefined","undefined","#e6e6e6","yes","2500","xpyriment","legacy","legacy","0","uniform","undefined","undefined","undefined","31","NA","31","0","0","31","NA","0","0","0","31","31","0","31","0","31","0","0","31","0","0","31","0","0","Fr 01 Jun 2018 12:13:55 CEST","A template containing a practice and an experimental phase","yes","195","faces.osexp","/home/vlab-eeg2-linux/Desktop/countface","n","050.i.jpg","495","no","Courier New","no","32","no","black","no","yes","768","legacy","31","31","0","/home/vlab-eeg2-linux/Desktop/countface/subject-0-marie-faces-asaold.csv","xpyriment","Kafkaesque Koffka","3.2.2b1","495","yes","0","return","NA","return","return","NA","35881","NA","10549","35881","NA","2","legacy","","1024","2","48000","-16","experiment","0","even","no","174869","NA","172369","49853","49853","171183","NA","NA","NA","3310","172172","172172","NA","171183","3365","174869","49845","13918","NA","NA","3310","171180","NA","49799","Ingwer","0","0","0","42","45","yes","1024"
"2412","2","undefined","undefined","undefined","undefined","#e6e6e6","yes","2500","xpyriment","legacy","legacy","0","uniform","undefined","undefined","undefined","32","NA","32","0","0","32","NA","0","0","0","32","32","0","32","0","32","0","0","32","0","0","32","0","0","Fr 01 Jun 2018 12:13:55 CEST","A template containing a practice and an experimental phase","yes","195","faces.osexp","/home/vlab-eeg2-linux/Desktop/countface","n","071.i.jpg","495","no","Courier New","no","32","no","black","no","yes","768","legacy","32","32","0","/home/vlab-eeg2-linux/Desktop/countface/subject-0-marie-faces-asaold.csv","xpyriment","Kafkaesque Koffka","3.2.2b1","495","yes","0","return","NA","return","return","NA","35881","NA","10549","35881","NA","2","legacy","","1024","2","48000","-16","experiment","0","even","no","178501","NA","176000","49853","49853","175301","NA","NA","NA","3310","175804","175804","NA","175300","3365","178501","49845","13918","NA","NA","3310","175297","NA","49799","Ingwer","0","0","0","42","45","yes","1024"
"2359","392","undefined","undefined","undefined","undefined","#e6e6e6","yes","2500","xpyriment","legacy","legacy","0","uniform","undefined","undefined","undefined","33","NA","33","0","0","33","NA","0","0","0","33","33","0","33","0","33","0","0","33","0","0","33","0","0","Fr 01 Jun 2018 12:13:55 CEST","A template containing a practice and an experimental phase","yes","195","faces.osexp","/home/vlab-eeg2-linux/Desktop/countface","y","f042.gif","495","no","Courier New","no","32","no","black","no","yes","768","legacy","33","33","0","/home/vlab-eeg2-linux/Desktop/countface/subject-0-marie-faces-asaold.csv","xpyriment","Kafkaesque Koffka","3.2.2b1","495","yes","0","return","NA","return","return","NA","35881","NA","10549","35881","NA","2","legacy","","1024","2","48000","-16","experiment","0","even","no","182535","NA","180035","49853","49853","178945","NA","NA","NA","3310","179838","179838","NA","178944","3365","182535","49845","13918","NA","NA","3310","178941","NA","49799","Ingwer","0","0","0","42","45","yes","1024"
"2019","446","undefined","undefined","undefined","undefined","#e6e6e6","yes","2500","xpyriment","legacy","legacy","0","uniform","undefined","undefined","undefined","34","NA","34","0","0","34","NA","0","0","0","34","34","0","34","0","34","0","0","34","0","0","34","0","0","Fr 01 Jun 2018 12:13:55 CEST","A template containing a practice and an experimental phase","yes","195","faces.osexp","/home/vlab-eeg2-linux/Desktop/countface","y","m059.gif","495","no","Courier New","no","32","no","black","no","yes","768","legacy","34","34","0","/home/vlab-eeg2-linux/Desktop/countface/subject-0-marie-faces-asaold.csv","xpyriment","Kafkaesque Koffka","3.2.2b1","495","yes","0","return","NA","return","return","NA","35881","NA","10549","35881","NA","2","legacy","","1024","2","48000","-16","experiment","0","even","no","186615","NA","184114","49853","49853","182970","NA","NA","NA","3310","183917","183917","NA","182970","3365","186615","49845","13918","NA","NA","3310","182967","NA","49799","Ingwer","0","0","0","42","45","yes","1024"
"2352","229","undefined","undefined","undefined","undefined","#e6e6e6","yes","2500","xpyriment","legacy","legacy","0","uniform","undefined","undefined","undefined","35","NA","35","0","0","35","NA","0","0","0","35","35","0","35","0","35","0","0","35","0","0","35","0","0","Fr 01 Jun 2018 12:13:55 CEST","A template containing a practice and an experimental phase","yes","195","faces.osexp","/home/vlab-eeg2-linux/Desktop/countface","n","040.i.jpg","495","no","Courier New","no","32","no","black","no","yes","768","legacy","35","35","0","/home/vlab-eeg2-linux/Desktop/countface/subject-0-marie-faces-asaold.csv","xpyriment","Kafkaesque Koffka","3.2.2b1","495","yes","0","return","NA","return","return","NA","35881","NA","10549","35881","NA","2","legacy","","1024","2","48000","-16","experiment","0","even","no","190496","NA","187996","49853","49853","187067","NA","NA","NA","3310","187799","187799","NA","187066","3365","190497","49845","13918","NA","NA","3310","187063","NA","49799","Ingwer","0","0","0","42","45","yes","1024"
"2217","148","undefined","undefined","undefined","undefined","#e6e6e6","yes","2500","xpyriment","legacy","legacy","0","uniform","undefined","undefined","undefined","36","NA","36","0","0","36","NA","0","0","0","36","36","0","36","0","36","0","0","36","0","0","36","0","0","Fr 01 Jun 2018 12:13:55 CEST","A template containing a practice and an experimental phase","yes","195","faces.osexp","/home/vlab-eeg2-linux/Desktop/countface","n","image4.i.indoor.gif","495","no","Courier New","no","32","no","black","no","yes","768","legacy","36","36","0","/home/vlab-eeg2-linux/Desktop/countface/subject-0-marie-faces-asaold.csv","xpyriment","Kafkaesque Koffka","3.2.2b1","495","yes","0","return","NA","return","return","NA","35881","NA","10549","35881","NA","2","legacy","","1024","2","48000","-16","experiment","0","even","no","194279","NA","191779","49853","49853","190931","NA","NA","NA","3310","191582","191582","NA","190930","3365","194279","49845","13918","NA","NA","3310","190927","NA","49799","Ingwer","0","0","0","42","45","yes","1024"
"2118","170","undefined","undefined","undefined","undefined","#e6e6e6","yes","2500","xpyriment","legacy","legacy","0","uniform","undefined","undefined","undefined","37","NA","37","0","0","37","NA","0","0","0","37","37","0","37","0","37","0","0","37","0","0","37","0","0","Fr 01 Jun 2018 12:13:55 CEST","A template containing a practice and an experimental phase","yes","195","faces.osexp","/home/vlab-eeg2-linux/Desktop/countface","y","m013.gif","495","no","Courier New","no","32","no","black","no","yes","768","legacy","37","37","0","/home/vlab-eeg2-linux/Desktop/countface/subject-0-marie-faces-asaold.csv","xpyriment","Kafkaesque Koffka","3.2.2b1","495","yes","0","return","NA","return","return","NA","35881","NA","10549","35881","NA","2","legacy","","1024","2","48000","-16","experiment","0","even","no","198105","NA","195605","49853","49853","194737","NA","NA","NA","3310","195408","195408","NA","194736","3365","198105","49845","13918","NA","NA","3310","194733","NA","49799","Ingwer","0","0","0","42","45","yes","1024"
"2076","390","undefined","undefined","undefined","undefined","#e6e6e6","yes","2500","xpyriment","legacy","legacy","0","uniform","undefined","undefined","undefined","38","NA","38","0","0","38","NA","0","0","0","38","38","0","38","0","38","0","0","38","0","0","38","0","0","Fr 01 Jun 2018 12:13:55 CEST","A template containing a practice and an experimental phase","yes","195","faces.osexp","/home/vlab-eeg2-linux/Desktop/countface","n","018.i.jpg","495","no","Courier New","no","32","no","black","no","yes","768","legacy","38","38","0","/home/vlab-eeg2-linux/Desktop/countface/subject-0-marie-faces-asaold.csv","xpyriment","Kafkaesque Koffka","3.2.2b1","495","yes","0","return","NA","return","return","NA","35881","NA","10549","35881","NA","2","legacy","","1024","2","48000","-16","experiment","0","even","no","202145","NA","199645","49853","49853","198557","NA","NA","NA","3310","199448","199448","NA","198556","3365","202145","49845","13918","NA","NA","3310","198553","NA","49799","Ingwer","0","0","0","42","45","yes","1024"
"2049","88","undefined","undefined","undefined","undefined","#e6e6e6","yes","2500","xpyriment","legacy","legacy","0","uniform","undefined","undefined","undefined","39","NA","39","0","0","39","NA","0","0","0","39","39","0","39","0","39","0","0","39","0","0","39","0","0","Fr 01 Jun 2018 12:13:55 CEST","A template containing a practice and an experimental phase","yes","195","faces.osexp","/home/vlab-eeg2-linux/Desktop/countface","n","014.i.jpg","495","no","Courier New","no","32","no","black","no","yes","768","legacy","39","39","0","/home/vlab-eeg2-linux/Desktop/countface/subject-0-marie-faces-asaold.csv","xpyriment","Kafkaesque Koffka","3.2.2b1","495","yes","0","return","NA","return","return","NA","35881","NA","10549","35881","NA","2","legacy","","1024","2","48000","-16","experiment","0","even","no","205880","NA","203380","49853","49853","202593","NA","NA","NA","3310","203183","203183","NA","202593","3365","205880","49845","13918","NA","NA","3310","202589","NA","49799","Ingwer","0","0","0","42","45","yes","1024"
"2108","190","undefined","undefined","undefined","undefined","#e6e6e6","yes","2500","xpyriment","legacy","legacy","0","uniform","undefined","undefined","undefined","40","NA","40","0","0","40","NA","0","0","0","40","40","0","40","0","40","0","0","40","0","0","40","0","0","Fr 01 Jun 2018 12:13:55 CEST","A template containing a practice and an experimental phase","yes","195","faces.osexp","/home/vlab-eeg2-linux/Desktop/countface","n","043.i.jpg","495","no","Courier New","no","32","no","black","no","yes","768","legacy","40","40","0","/home/vlab-eeg2-linux/Desktop/countface/subject-0-marie-faces-asaold.csv","xpyriment","Kafkaesque Koffka","3.2.2b1","495","yes","0","return","NA","return","return","NA","35881","NA","10549","35881","NA","2","legacy","","1024","2","48000","-16","experiment","0","even","no","209707","NA","207207","49853","49853","206319","NA","NA","NA","3310","207010","207010","NA","206319","3365","209707","49845","13918","NA","NA","3310","206316","NA","49799","Ingwer","0","0","0","42","45","yes","1024"
"2356","414","undefined","undefined","undefined","undefined","#e6e6e6","yes","2500","xpyriment","legacy","legacy","0","uniform","undefined","undefined","undefined","41","NA","41","0","0","41","NA","0","0","0","41","41","0","41","0","41","0","0","41","0","0","41","0","0","Fr 01 Jun 2018 12:13:55 CEST","A template containing a practice and an experimental phase","yes","195","faces.osexp","/home/vlab-eeg2-linux/Desktop/countface","n","images5.gif","495","no","Courier New","no","32","no","black","no","yes","768","legacy","41","41","0","/home/vlab-eeg2-linux/Desktop/countface/subject-0-marie-faces-asaold.csv","xpyriment","Kafkaesque Koffka","3.2.2b1","495","yes","0","return","NA","return","return","NA","35881","NA","10549","35881","NA","2","legacy","","1024","2","48000","-16","experiment","0","even","no","213763","NA","211263","49853","49853","210150","NA","NA","NA","3310","211065","211065","NA","210150","3365","213763","49845","13918","NA","NA","3310","210147","NA","49799","Ingwer","0","0","0","42","45","yes","1024"
"2172","209","undefined","undefined","undefined","undefined","#e6e6e6","yes","2500","xpyriment","legacy","legacy","0","uniform","undefined","undefined","undefined","42","NA","42","0","0","42","NA","0","0","0","42","42","0","42","0","42","0","0","42","0","0","42","0","0","Fr 01 Jun 2018 12:13:55 CEST","A template containing a practice and an experimental phase","yes","195","faces.osexp","/home/vlab-eeg2-linux/Desktop/countface","y","m100.gif","495","no","Courier New","no","32","no","black","no","yes","768","legacy","42","42","0","/home/vlab-eeg2-linux/Desktop/countface/subject-0-marie-faces-asaold.csv","xpyriment","Kafkaesque Koffka","3.2.2b1","495","yes","0","return","NA","return","return","NA","35881","NA","10549","35881","NA","2","legacy","","1024","2","48000","-16","experiment","0","even","no","217610","NA","215110","49853","49853","214203","NA","NA","NA","3310","214913","214913","NA","214203","3365","217610","49845","13918","NA","NA","3310","214200","NA","49799","Ingwer","0","0","0","42","45","yes","1024"
"2327","361","undefined","undefined","undefined","undefined","#e6e6e6","yes","2500","xpyriment","legacy","legacy","0","uniform","undefined","undefined","undefined","43","NA","43","0","0","43","NA","0","0","0","43","43","0","43","0","43","0","0","43","0","0","43","0","0","Fr 01 Jun 2018 12:13:55 CEST","A template containing a practice and an experimental phase","yes","195","faces.osexp","/home/vlab-eeg2-linux/Desktop/countface","n","057.i.jpg","495","no","Courier New","no","32","no","black","no","yes","768","legacy","43","43","0","/home/vlab-eeg2-linux/Desktop/countface/subject-0-marie-faces-asaold.csv","xpyriment","Kafkaesque Koffka","3.2.2b1","495","yes","0","return","NA","return","return","NA","35881","NA","10549","35881","NA","2","legacy","","1024","2","48000","-16","experiment","0","even","no","221622","NA","219121","49853","49853","218060","NA","NA","NA","3310","218923","218923","NA","218059","3365","221622","49845","13918","NA","NA","3310","218056","NA","49799","Ingwer","0","0","0","42","45","yes","1024"
"2399","400","undefined","undefined","undefined","undefined","#e6e6e6","yes","2500","xpyriment","legacy","legacy","0","uniform","undefined","undefined","undefined","44","NA","44","0","0","44","NA","0","0","0","44","44","0","44","0","44","0","0","44","0","0","44","0","0","Fr 01 Jun 2018 12:13:55 CEST","A template containing a practice and an experimental phase","yes","195","faces.osexp","/home/vlab-eeg2-linux/Desktop/countface","n","051.i.jpg","495","no","Courier New","no","32","no","black","no","yes","768","legacy","44","44","0","/home/vlab-eeg2-linux/Desktop/countface/subject-0-marie-faces-asaold.csv","xpyriment","Kafkaesque Koffka","3.2.2b1","495","yes","0","return","NA","return","return","NA","35881","NA","10549","35881","NA","2","legacy","","1024","2","48000","-16","experiment","0","even","no","225675","NA","223175","49853","49853","222077","NA","NA","NA","3310","222978","222978","NA","222077","3365","225675","49845","13918","NA","NA","3310","222073","NA","49799","Ingwer","0","0","0","42","45","yes","1024"
"2262","22","undefined","undefined","undefined","undefined","#e6e6e6","yes","2500","xpyriment","legacy","legacy","0","uniform","undefined","undefined","undefined","45","NA","45","0","0","45","NA","0","0","0","45","45","0","45","0","45","0","0","45","0","0","45","0","0","Fr 01 Jun 2018 12:13:55 CEST","A template containing a practice and an experimental phase","yes","195","faces.osexp","/home/vlab-eeg2-linux/Desktop/countface","n","059.i.jpg","495","no","Courier New","no","32","no","black","no","yes","768","legacy","45","45","0","/home/vlab-eeg2-linux/Desktop/countface/subject-0-marie-faces-asaold.csv","xpyriment","Kafkaesque Koffka","3.2.2b1","495","yes","0","return","NA","return","return","NA","35881","NA","10549","35881","NA","2","legacy","","1024","2","48000","-16","experiment","0","even","no","229346","NA","226846","49853","49853","226126","NA","NA","NA","3310","226649","226649","NA","226125","3365","229346","49845","13918","NA","NA","3310","226122","NA","49799","Ingwer","0","0","0","42","45","yes","1024"
"2179","429","undefined","undefined","undefined","undefined","#e6e6e6","yes","2500","xpyriment","legacy","legacy","0","uniform","undefined","undefined","undefined","46","NA","46","0","0","46","NA","0","0","0","46","46","0","46","0","46","0","0","46","0","0","46","0","0","Fr 01 Jun 2018 12:13:55 CEST","A template containing a practice and an experimental phase","yes","195","faces.osexp","/home/vlab-eeg2-linux/Desktop/countface","n","030.i.jpg","495","no","Courier New","no","32","no","black","no","yes","768","legacy","46","46","0","/home/vlab-eeg2-linux/Desktop/countface/subject-0-marie-faces-asaold.csv","xpyriment","Kafkaesque Koffka","3.2.2b1","495","yes","0","return","NA","return","return","NA","35881","NA","10549","35881","NA","2","legacy","","1024","2","48000","-16","experiment","0","even","no","233410","NA","230909","49853","49853","229781","NA","NA","NA","3310","230712","230712","NA","229781","3365","233410","49845","13918","NA","NA","3310","229778","NA","49799","Ingwer","0","0","0","42","45","yes","1024"
"2424","487","undefined","undefined","undefined","undefined","#e6e6e6","yes","2500","xpyriment","legacy","legacy","0","uniform","undefined","undefined","undefined","47","NA","47","0","0","47","NA","0","0","0","47","47","0","47","0","47","0","0","47","0","0","47","0","0","Fr 01 Jun 2018 12:13:55 CEST","A template containing a practice and an experimental phase","yes","195","faces.osexp","/home/vlab-eeg2-linux/Desktop/countface","y","m002.gif","495","no","Courier New","no","32","no","black","no","yes","768","legacy","47","47","0","/home/vlab-eeg2-linux/Desktop/countface/subject-0-marie-faces-asaold.csv","xpyriment","Kafkaesque Koffka","3.2.2b1","495","yes","0","return","NA","return","return","NA","35881","NA","10549","35881","NA","2","legacy","","1024","2","48000","-16","experiment","0","even","no","237540","NA","235039","49853","49853","233854","NA","NA","NA","3310","234842","234842","NA","233854","3365","237540","49845","13918","NA","NA","3310","233850","NA","49799","Ingwer","0","0","0","42","45","yes","1024"
"2180","455","undefined","undefined","undefined","undefined","#e6e6e6","yes","2500","xpyriment","legacy","legacy","0","uniform","undefined","undefined","undefined","48","NA","48","0","0","48","NA","0","0","0","48","48","0","48","0","48","0","0","48","0","0","48","0","0","Fr 01 Jun 2018 12:13:55 CEST","A template containing a practice and an experimental phase","yes","195","faces.osexp","/home/vlab-eeg2-linux/Desktop/countface","n","022.i.jpg","495","no","Courier New","no","32","no","black","no","yes","768","legacy","48","48","0","/home/vlab-eeg2-linux/Desktop/countface/subject-0-marie-faces-asaold.csv","xpyriment","Kafkaesque Koffka","3.2.2b1","495","yes","0","return","NA","return","return","NA","35881","NA","10549","35881","NA","2","legacy","","1024","2","48000","-16","experiment","0","even","no","241639","NA","239139","49853","49853","237985","NA","NA","NA","3310","238942","238942","NA","237985","3365","241639","49845","13918","NA","NA","3310","237982","NA","49799","Ingwer","0","0","0","42","45","yes","1024"
"2384","293","undefined","undefined","undefined","undefined","#e6e6e6","yes","2500","xpyriment","legacy","legacy","0","uniform","undefined","undefined","undefined","49","NA","49","0","0","49","NA","0","0","0","49","49","0","49","0","49","0","0","49","0","0","49","0","0","Fr 01 Jun 2018 12:13:55 CEST","A template containing a practice and an experimental phase","yes","195","faces.osexp","/home/vlab-eeg2-linux/Desktop/countface","n","036.i.jpg","495","no","Courier New","no","32","no","black","no","yes","768","legacy","49","49","0","/home/vlab-eeg2-linux/Desktop/countface/subject-0-marie-faces-asaold.csv","xpyriment","Kafkaesque Koffka","3.2.2b1","495","yes","0","return","NA","return","return","NA","35881","NA","10549","35881","NA","2","legacy","","1024","2","48000","-16","experiment","0","even","no","245572","NA","243071","49853","49853","242080","NA","NA","NA","3310","242874","242874","NA","242080","3365","245572","49845","13918","NA","NA","3310","242077","NA","49799","Ingwer","0","0","0","42","45","yes","1024"
"2463","495","undefined","undefined","undefined","undefined","#e6e6e6","yes","2500","xpyriment","legacy","legacy","0","uniform","undefined","undefined","undefined","50","NA","50","0","0","50","NA","0","0","0","50","50","0","50","0","50","0","0","50","0","0","50","0","0","Fr 01 Jun 2018 12:13:55 CEST","A template containing a practice and an experimental phase","yes","195","faces.osexp","/home/vlab-eeg2-linux/Desktop/countface","n","060.i.jpg","495","no","Courier New","no","32","no","black","no","yes","768","legacy","50","50","0","/home/vlab-eeg2-linux/Desktop/countface/subject-0-marie-faces-asaold.csv","xpyriment","Kafkaesque Koffka","3.2.2b1","495","yes","0","return","NA","return","return","return","3272","NA","10549","35881","3272","2","legacy","","1024","2","48000","-16","experiment","0","even","no","249709","NA","247209","49853","49853","246015","NA","NA","NA","3310","247011","247012","NA","246015","3365","252985","49845","13918","249712","NA","3310","246012","NA","49799","Ingwer","0","0","0","42","45","yes","1024"
"2270","318","undefined","undefined","undefined","undefined","#e6e6e6","yes","2500","xpyriment","legacy","legacy","0","uniform","undefined","undefined","undefined","51","NA","51","0","0","51","NA","0","0","0","51","51","0","51","0","51","0","0","51","0","0","51","0","0","Fr 01 Jun 2018 12:13:55 CEST","A template containing a practice and an experimental phase","yes","195","faces.osexp","/home/vlab-eeg2-linux/Desktop/countface","n","stereo10.gif","495","no","Courier New","no","32","no","black","no","yes","768","legacy","51","51","0","/home/vlab-eeg2-linux/Desktop/countface/subject-0-marie-faces-asaold.csv","xpyriment","Kafkaesque Koffka","3.2.2b1","495","yes","0","return","NA","return","return","return","3272","NA","10549","35881","3272","2","legacy","","1024","2","48000","-16","experiment","0","even","no","256926","NA","254425","49853","49853","253409","NA","NA","NA","3310","254228","254228","NA","253408","3365","256926","49845","13918","249712","NA","3310","253403","NA","49799","Ingwer","0","0","0","42","45","yes","1024"
"2208","87","undefined","undefined","undefined","undefined","#e6e6e6","yes","2500","xpyriment","legacy","legacy","0","uniform","undefined","undefined","undefined","52","NA","52","0","0","52","NA","0","0","0","52","52","0","52","0","52","0","0","52","0","0","52","0","0","Fr 01 Jun 2018 12:13:55 CEST","A template containing a practice and an experimental phase","yes","195","faces.osexp","/home/vlab-eeg2-linux/Desktop/countface","y","m091.gif","495","no","Courier New","no","32","no","black","no","yes","768","legacy","52","52","0","/home/vlab-eeg2-linux/Desktop/countface/subject-0-marie-faces-asaold.csv","xpyriment","Kafkaesque Koffka","3.2.2b1","495","yes","0","return","NA","return","return","return","3272","NA","10549","35881","3272","2","legacy","","1024","2","48000","-16","experiment","0","even","no","260642","NA","258142","49853","49853","257354","NA","NA","NA","3310","257944","257945","NA","257354","3365","260642","49845","13918","249712","NA","3310","257351","NA","49799","Ingwer","0","0","0","42","45","yes","1024"
"2224","422","undefined","undefined","undefined","undefined","#e6e6e6","yes","2500","xpyriment","legacy","legacy","0","uniform","undefined","undefined","undefined","53","NA","53","0","0","53","NA","0","0","0","53","53","0","53","0","53","0","0","53","0","0","53","0","0","Fr 01 Jun 2018 12:13:55 CEST","A template containing a practice and an experimental phase","yes","195","faces.osexp","/home/vlab-eeg2-linux/Desktop/countface","n","006.i.jpg","495","no","Courier New","no","32","no","black","no","yes","768","legacy","53","53","0","/home/vlab-eeg2-linux/Desktop/countface/subject-0-marie-faces-asaold.csv","xpyriment","Kafkaesque Koffka","3.2.2b1","495","yes","0","return","NA","return","return","return","3272","NA","10549","35881","3272","2","legacy","","1024","2","48000","-16","experiment","0","even","no","264695","NA","262195","49853","49853","261074","NA","NA","NA","3310","261998","261998","NA","261073","3365","264695","49845","13918","249712","NA","3310","261070","NA","49799","Ingwer","0","0","0","42","45","yes","1024"
"2400","73","undefined","undefined","undefined","undefined","#e6e6e6","yes","2500","xpyriment","legacy","legacy","0","uniform","undefined","undefined","undefined","54","NA","54","0","0","54","NA","0","0","0","54","54","0","54","0","54","0","0","54","0","0","54","0","0","Fr 01 Jun 2018 12:13:55 CEST","A template containing a practice and an experimental phase","yes","195","faces.osexp","/home/vlab-eeg2-linux/Desktop/countface","y","m078.gif","495","no","Courier New","no","32","no","black","no","yes","768","legacy","54","54","0","/home/vlab-eeg2-linux/Desktop/countface/subject-0-marie-faces-asaold.csv","xpyriment","Kafkaesque Koffka","3.2.2b1","495","yes","0","return","NA","return","return","return","3272","NA","10549","35881","3272","2","legacy","","1024","2","48000","-16","experiment","0","even","no","268400","NA","265900","49853","49853","265128","NA","NA","NA","3310","265703","265703","NA","265128","3365","268400","49845","13918","249712","NA","3310","265125","NA","49799","Ingwer","0","0","0","42","45","yes","1024"
"2252","193","undefined","undefined","undefined","undefined","#e6e6e6","yes","2500","xpyriment","legacy","legacy","0","uniform","undefined","undefined","undefined","55","NA","55","0","0","55","NA","0","0","0","55","55","0","55","0","55","0","0","55","0","0","55","0","0","Fr 01 Jun 2018 12:13:55 CEST","A template containing a practice and an experimental phase","yes","195","faces.osexp","/home/vlab-eeg2-linux/Desktop/countface","n","066.i.jpg","495","no","Courier New","no","32","no","black","no","yes","768","legacy","55","55","0","/home/vlab-eeg2-linux/Desktop/countface/subject-0-marie-faces-asaold.csv","xpyriment","Kafkaesque Koffka","3.2.2b1","495","yes","0","return","NA","return","return","return","3272","NA","10549","35881","3272","2","legacy","","1024","2","48000","-16","experiment","0","even","no","272234","NA","269734","49853","49853","268843","NA","NA","NA","3310","269537","269537","NA","268843","3365","272234","49845","13918","249712","NA","3310","268840","NA","49799","Ingwer","0","0","0","42","45","yes","1024"
"2077","23","undefined","undefined","undefined","undefined","#e6e6e6","yes","2500","xpyriment","legacy","legacy","0","uniform","undefined","undefined","undefined","56","NA","56","0","0","56","NA","0","0","0","56","56","0","56","0","56","0","0","56","0","0","56","0","0","Fr 01 Jun 2018 12:13:55 CEST","A template containing a practice and an experimental phase","yes","195","faces.osexp","/home/vlab-eeg2-linux/Desktop/countface","y","m003.gif","495","no","Courier New","no","32","no","black","no","yes","768","legacy","56","56","0","/home/vlab-eeg2-linux/Desktop/countface/subject-0-marie-faces-asaold.csv","xpyriment","Kafkaesque Koffka","3.2.2b1","495","yes","0","return","NA","return","return","return","3272","NA","10549","35881","3272","2","legacy","","1024","2","48000","-16","experiment","0","even","no","275893","NA","273393","49853","49853","272672","NA","NA","NA","3310","273196","273196","NA","272672","3365","275893","49845","13918","249712","NA","3310","272668","NA","49799","Ingwer","0","0","0","42","45","yes","1024"
"2388","441","undefined","undefined","undefined","undefined","#e6e6e6","yes","2500","xpyriment","legacy","legacy","0","uniform","undefined","undefined","undefined","57","NA","57","0","0","57","NA","0","0","0","57","57","0","57","0","57","0","0","57","0","0","57","0","0","Fr 01 Jun 2018 12:13:55 CEST","A template containing a practice and an experimental phase","yes","195","faces.osexp","/home/vlab-eeg2-linux/Desktop/countface","y","f006.gif","495","no","Courier New","no","32","no","black","no","yes","768","legacy","57","57","0","/home/vlab-eeg2-linux/Desktop/countface/subject-0-marie-faces-asaold.csv","xpyriment","Kafkaesque Koffka","3.2.2b1","495","yes","0","return","NA","return","return","return","3272","NA","10549","35881","3272","2","legacy","","1024","2","48000","-16","experiment","0","even","no","279974","NA","277474","49853","49853","276334","NA","NA","NA","3310","277276","277276","NA","276334","3365","279974","49845","13918","249712","NA","3310","276331","NA","49799","Ingwer","0","0","0","42","45","yes","1024"
"2413","205","undefined","undefined","undefined","undefined","#e6e6e6","yes","2500","xpyriment","legacy","legacy","0","uniform","undefined","undefined","undefined","58","NA","58","0","0","58","NA","0","0","0","58","58","0","58","0","58","0","0","58","0","0","58","0","0","Fr 01 Jun 2018 12:13:55 CEST","A template containing a practice and an experimental phase","yes","195","faces.osexp","/home/vlab-eeg2-linux/Desktop/countface","n","056.i.jpg","495","no","Courier New","no","32","no","black","no","yes","768","legacy","58","58","0","/home/vlab-eeg2-linux/Desktop/countface/subject-0-marie-faces-asaold.csv","xpyriment","Kafkaesque Koffka","3.2.2b1","495","yes","0","return","NA","return","return","return","3272","NA","10549","35881","3272","2","legacy","","1024","2","48000","-16","experiment","0","even","no","283815","NA","281315","49853","49853","280412","NA","NA","NA","3310","281118","281118","NA","280412","3365","283815","49845","13918","249712","NA","3310","280409","NA","49799","Ingwer","0","0","0","42","45","yes","1024"
"2460","256","undefined","undefined","undefined","undefined","#e6e6e6","yes","2500","xpyriment","legacy","legacy","0","uniform","undefined","undefined","undefined","59","NA","59","0","0","59","NA","0","0","0","59","59","0","59","0","59","0","0","59","0","0","59","0","0","Fr 01 Jun 2018 12:13:55 CEST","A template containing a practice and an experimental phase","yes","195","faces.osexp","/home/vlab-eeg2-linux/Desktop/countface","n","028.i.jpg","495","no","Courier New","no","32","no","black","no","yes","768","legacy","59","59","0","/home/vlab-eeg2-linux/Desktop/countface/subject-0-marie-faces-asaold.csv","xpyriment","Kafkaesque Koffka","3.2.2b1","495","yes","0","return","NA","return","return","return","3272","NA","10549","35881","3272","2","legacy","","1024","2","48000","-16","experiment","0","even","no","287709","NA","285209","49853","49853","284254","NA","NA","NA","3310","285012","285012","NA","284254","3365","287709","49845","13918","249712","NA","3310","284251","NA","49799","Ingwer","0","0","0","42","45","yes","1024"
"2428","31","undefined","undefined","undefined","undefined","#e6e6e6","yes","2500","xpyriment","legacy","legacy","0","uniform","undefined","undefined","undefined","60","NA","60","0","0","60","NA","0","0","0","60","60","0","60","0","60","0","0","60","0","0","60","0","0","Fr 01 Jun 2018 12:13:55 CEST","A template containing a practice and an experimental phase","yes","195","faces.osexp","/home/vlab-eeg2-linux/Desktop/countface","y","f075.gif","495","no","Courier New","no","32","no","black","no","yes","768","legacy","60","60","0","/home/vlab-eeg2-linux/Desktop/countface/subject-0-marie-faces-asaold.csv","xpyriment","Kafkaesque Koffka","3.2.2b1","495","yes","0","return","NA","return","return","return","3272","NA","10549","35881","3272","2","legacy","","1024","2","48000","-16","experiment","0","even","no","291379","NA","288879","49853","49853","288150","NA","NA","NA","3310","288682","288682","NA","288150","3365","291379","49845","13918","249712","NA","3310","288147","NA","49799","Ingwer","0","0","0","42","45","yes","1024"
"2404","184","undefined","undefined","undefined","undefined","#e6e6e6","yes","2500","xpyriment","legacy","legacy","0","uniform","undefined","undefined","undefined","61","NA","61","0","0","61","NA","0","0","0","61","61","0","61","0","61","0","0","61","0","0","61","0","0","Fr 01 Jun 2018 12:13:55 CEST","A template containing a practice and an experimental phase","yes","195","faces.osexp","/home/vlab-eeg2-linux/Desktop/countface","n","067.i.jpg","495","no","Courier New","no","32","no","black","no","yes","768","legacy","61","61","0","/home/vlab-eeg2-linux/Desktop/countface/subject-0-marie-faces-asaold.csv","xpyriment","Kafkaesque Koffka","3.2.2b1","495","yes","0","return","NA","return","return","return","3272","NA","10549","35881","3272","2","legacy","","1024","2","48000","-16","experiment","0","even","no","295201","NA","292701","49853","49853","291818","NA","NA","NA","3310","292503","292504","NA","291818","3365","295201","49845","13918","249712","NA","3310","291815","NA","49799","Ingwer","0","0","0","42","45","yes","1024"
"2251","179","undefined","undefined","undefined","undefined","#e6e6e6","yes","2500","xpyriment","legacy","legacy","0","uniform","undefined","undefined","undefined","62","NA","62","0","0","62","NA","0","0","0","62","62","0","62","0","62","0","0","62","0","0","62","0","0","Fr 01 Jun 2018 12:13:55 CEST","A template containing a practice and an experimental phase","yes","195","faces.osexp","/home/vlab-eeg2-linux/Desktop/countface","y","f029.gif","495","no","Courier New","no","32","no","black","no","yes","768","legacy","62","62","0","/home/vlab-eeg2-linux/Desktop/countface/subject-0-marie-faces-asaold.csv","xpyriment","Kafkaesque Koffka","3.2.2b1","495","yes","0","return","NA","return","return","return","3272","NA","10549","35881","3272","2","legacy","","1024","2","48000","-16","experiment","0","even","no","299013","NA","296513","49853","49853","295636","NA","NA","NA","3310","296316","296316","NA","295636","3365","299013","49845","13918","249712","NA","3310","295633","NA","49799","Ingwer","0","0","0","42","45","yes","1024"
"2001","353","undefined","undefined","undefined","undefined","#e6e6e6","yes","2500","xpyriment","legacy","legacy","0","uniform","undefined","undefined","undefined","63","NA","63","0","0","63","NA","0","0","0","63","63","0","63","0","63","0","0","63","0","0","63","0","0","Fr 01 Jun 2018 12:13:55 CEST","A template containing a practice and an experimental phase","yes","195","faces.osexp","/home/vlab-eeg2-linux/Desktop/countface","y","m045.gif","495","no","Courier New","no","32","no","black","no","yes","768","legacy","63","63","0","/home/vlab-eeg2-linux/Desktop/countface/subject-0-marie-faces-asaold.csv","xpyriment","Kafkaesque Koffka","3.2.2b1","495","yes","0","return","NA","return","return","return","3272","NA","10549","35881","3272","2","legacy","","1024","2","48000","-16","experiment","0","even","no","303002","NA","300502","49853","49853","299449","NA","NA","NA","3310","300303","300303","NA","299449","3365","303002","49845","13918","249712","NA","3310","299445","NA","49799","Ingwer","0","0","0","42","45","yes","1024"
"2165","136","undefined","undefined","undefined","undefined","#e6e6e6","yes","2500","xpyriment","legacy","legacy","0","uniform","undefined","undefined","undefined","64","NA","64","0","0","64","NA","0","0","0","64","64","0","64","0","64","0","0","64","0","0","64","0","0","Fr 01 Jun 2018 12:13:55 CEST","A template containing a practice and an experimental phase","yes","195","faces.osexp","/home/vlab-eeg2-linux/Desktop/countface","y","f054.gif","495","no","Courier New","no","32","no","black","no","yes","768","legacy","64","64","0","/home/vlab-eeg2-linux/Desktop/countface/subject-0-marie-faces-asaold.csv","xpyriment","Kafkaesque Koffka","3.2.2b1","495","yes","0","return","NA","return","return","return","3272","NA","10549","35881","3272","2","legacy","","1024","2","48000","-16","experiment","0","even","no","306777","NA","304277","49853","49853","303443","NA","NA","NA","3310","304080","304080","NA","303442","3365","306777","49845","13918","249712","NA","3310","303435","NA","49799","Ingwer","0","0","0","42","45","yes","1024"
"2334","59","undefined","undefined","undefined","undefined","#e6e6e6","yes","2500","xpyriment","legacy","legacy","0","uniform","undefined","undefined","undefined","65","NA","65","0","0","65","NA","0","0","0","65","65","0","65","0","65","0","0","65","0","0","65","0","0","Fr 01 Jun 2018 12:13:55 CEST","A template containing a practice and an experimental phase","yes","195","faces.osexp","/home/vlab-eeg2-linux/Desktop/countface","y","f017.gif","495","no","Courier New","no","32","no","black","no","yes","768","legacy","65","65","0","/home/vlab-eeg2-linux/Desktop/countface/subject-0-marie-faces-asaold.csv","xpyriment","Kafkaesque Koffka","3.2.2b1","495","yes","0","return","NA","return","return","return","3272","NA","10549","35881","3272","2","legacy","","1024","2","48000","-16","experiment","0","even","no","310485","NA","307985","49853","49853","307226","NA","NA","NA","3310","307787","307787","NA","307226","3365","310485","49845","13918","249712","NA","3310","307222","NA","49799","Ingwer","0","0","0","42","45","yes","1024"
"2059","388","undefined","undefined","undefined","undefined","#e6e6e6","yes","2500","xpyriment","legacy","legacy","0","uniform","undefined","undefined","undefined","66","NA","66","0","0","66","NA","0","0","0","66","66","0","66","0","66","0","0","66","0","0","66","0","0","Fr 01 Jun 2018 12:13:55 CEST","A template containing a practice and an experimental phase","yes","195","faces.osexp","/home/vlab-eeg2-linux/Desktop/countface","y","m032.gif","495","no","Courier New","no","32","no","black","no","yes","768","legacy","66","66","0","/home/vlab-eeg2-linux/Desktop/countface/subject-0-marie-faces-asaold.csv","xpyriment","Kafkaesque Koffka","3.2.2b1","495","yes","0","return","NA","return","return","return","3272","NA","10549","35881","3272","2","legacy","","1024","2","48000","-16","experiment","0","even","no","314516","NA","312016","49853","49853","310929","NA","NA","NA","3310","311818","311818","NA","310929","3365","314516","49845","13918","249712","NA","3310","310926","NA","49799","Ingwer","0","0","0","42","45","yes","1024"
"2357","141","undefined","undefined","undefined","undefined","#e6e6e6","yes","2500","xpyriment","legacy","legacy","0","uniform","undefined","undefined","undefined","67","NA","67","0","0","67","NA","0","0","0","67","67","0","67","0","67","0","0","67","0","0","67","0","0","Fr 01 Jun 2018 12:13:55 CEST","A template containing a practice and an experimental phase","yes","195","faces.osexp","/home/vlab-eeg2-linux/Desktop/countface","y","m067.gif","495","no","Courier New","no","32","no","black","no","yes","768","legacy","67","67","0","/home/vlab-eeg2-linux/Desktop/countface/subject-0-marie-faces-asaold.csv","xpyriment","Kafkaesque Koffka","3.2.2b1","495","yes","0","return","NA","return","return","return","3272","NA","10549","35881","3272","2","legacy","","1024","2","48000","-16","experiment","0","even","no","318302","NA","315802","49853","49853","314963","NA","NA","NA","3310","315605","315605","NA","314963","3365","318302","49845","13918","249712","NA","3310","314960","NA","49799","Ingwer","0","0","0","42","45","yes","1024"
"2262","337","undefined","undefined","undefined","undefined","#e6e6e6","yes","2500","xpyriment","legacy","legacy","0","uniform","undefined","undefined","undefined","68","NA","68","0","0","68","NA","0","0","0","68","68","0","68","0","68","0","0","68","0","0","68","0","0","Fr 01 Jun 2018 12:13:55 CEST","A template containing a practice and an experimental phase","yes","195","faces.osexp","/home/vlab-eeg2-linux/Desktop/countface","n","070.i.jpg","495","no","Courier New","no","32","no","black","no","yes","768","legacy","68","68","0","/home/vlab-eeg2-linux/Desktop/countface/subject-0-marie-faces-asaold.csv","xpyriment","Kafkaesque Koffka","3.2.2b1","495","yes","0","return","NA","return","return","return","3272","NA","10549","35881","3272","2","legacy","","1024","2","48000","-16","experiment","0","even","no","322279","NA","319779","49853","49853","318743","NA","NA","NA","3310","319581","319582","NA","318743","3365","322279","49845","13918","249712","NA","3310","318739","NA","49799","Ingwer","0","0","0","42","45","yes","1024"
"2311","347","undefined","undefined","undefined","undefined","#e6e6e6","yes","2500","xpyriment","legacy","legacy","0","uniform","undefined","undefined","undefined","69","NA","69","0","0","69","NA","0","0","0","69","69","0","69","0","69","0","0","69","0","0","69","0","0","Fr 01 Jun 2018 12:13:55 CEST","A template containing a practice and an experimental phase","yes","195","faces.osexp","/home/vlab-eeg2-linux/Desktop/countface","y","m044.gif","495","no","Courier New","no","32","no","black","no","yes","768","legacy","69","69","0","/home/vlab-eeg2-linux/Desktop/countface/subject-0-marie-faces-asaold.csv","xpyriment","Kafkaesque Koffka","3.2.2b1","495","yes","0","return","NA","return","return","return","3272","NA","10549","35881","3272","2","legacy","","1024","2","48000","-16","experiment","0","even","no","326261","NA","323761","49853","49853","322716","NA","NA","NA","3310","323564","323564","NA","322716","3365","326261","49845","13918","249712","NA","3310","322713","NA","49799","Ingwer","0","0","0","42","45","yes","1024"
"2162","53","undefined","undefined","undefined","undefined","#e6e6e6","yes","2500","xpyriment","legacy","legacy","0","uniform","undefined","undefined","undefined","70","NA","70","0","0","70","NA","0","0","0","70","70","0","70","0","70","0","0","70","0","0","70","0","0","Fr 01 Jun 2018 12:13:55 CEST","A template containing a practice and an experimental phase","yes","195","faces.osexp","/home/vlab-eeg2-linux/Desktop/countface","y","m051.gif","495","no","Courier New","no","32","no","black","no","yes","768","legacy","70","70","0","/home/vlab-eeg2-linux/Desktop/countface/subject-0-marie-faces-asaold.csv","xpyriment","Kafkaesque Koffka","3.2.2b1","495","yes","0","return","NA","return","return","return","3272","NA","10549","35881","3272","2","legacy","","1024","2","48000","-16","experiment","0","even","no","329958","NA","327458","49853","49853","326707","NA","NA","NA","3310","327261","327261","NA","326707","3365","329958","49845","13918","249712","NA","3310","326703","NA","49799","Ingwer","0","0","0","42","45","yes","1024"
"2482","222","undefined","undefined","undefined","undefined","#e6e6e6","yes","2500","xpyriment","legacy","legacy","0","uniform","undefined","undefined","undefined","71","NA","71","0","0","71","NA","0","0","0","71","71","0","71","0","71","0","0","71","0","0","71","0","0","Fr 01 Jun 2018 12:13:55 CEST","A template containing a practice and an experimental phase","yes","195","faces.osexp","/home/vlab-eeg2-linux/Desktop/countface","y","f063.gif","495","no","Courier New","no","32","no","black","no","yes","768","legacy","71","71","0","/home/vlab-eeg2-linux/Desktop/countface/subject-0-marie-faces-asaold.csv","xpyriment","Kafkaesque Koffka","3.2.2b1","495","yes","0","return","NA","return","return","return","3272","NA","10549","35881","3272","2","legacy","","1024","2","48000","-16","experiment","0","even","no","333817","NA","331317","49853","49853","330396","NA","NA","NA","3310","331120","331120","NA","330396","3365","333817","49845","13918","249712","NA","3310","330393","NA","49799","Ingwer","0","0","0","42","45","yes","1024"
"2217","33","undefined","undefined","undefined","undefined","#e6e6e6","yes","2500","xpyriment","legacy","legacy","0","uniform","undefined","undefined","undefined","72","NA","72","0","0","72","NA","0","0","0","72","72","0","72","0","72","0","0","72","0","0","72","0","0","Fr 01 Jun 2018 12:13:55 CEST","A template containing a practice and an experimental phase","yes","195","faces.osexp","/home/vlab-eeg2-linux/Desktop/countface","n","029.i.jpg","495","no","Courier New","no","32","no","black","no","yes","768","legacy","72","72","0","/home/vlab-eeg2-linux/Desktop/countface/subject-0-marie-faces-asaold.csv","xpyriment","Kafkaesque Koffka","3.2.2b1","495","yes","0","return","NA","return","return","return","3272","NA","10549","35881","3272","2","legacy","","1024","2","48000","-16","experiment","0","even","no","337489","NA","334989","49853","49853","334258","NA","NA","NA","3310","334792","334792","NA","334258","3365","337489","49845","13918","249712","NA","3310","334255","NA","49799","Ingwer","0","0","0","42","45","yes","1024"
"2279","252","undefined","undefined","undefined","undefined","#e6e6e6","yes","2500","xpyriment","legacy","legacy","0","uniform","undefined","undefined","undefined","73","NA","73","0","0","73","NA","0","0","0","73","73","0","73","0","73","0","0","73","0","0","73","0","0","Fr 01 Jun 2018 12:13:55 CEST","A template containing a practice and an experimental phase","yes","195","faces.osexp","/home/vlab-eeg2-linux/Desktop/countface","y","m084.gif","495","no","Courier New","no","32","no","black","no","yes","768","legacy","73","73","0","/home/vlab-eeg2-linux/Desktop/countface/subject-0-marie-faces-asaold.csv","xpyriment","Kafkaesque Koffka","3.2.2b1","495","yes","0","return","NA","return","return","return","3272","NA","10549","35881","3272","2","legacy","","1024","2","48000","-16","experiment","0","even","no","341379","NA","338879","49853","49853","337929","NA","NA","NA","3310","338682","338682","NA","337929","3365","341379","49845","13918","249712","NA","3310","337926","NA","49799","Ingwer","0","0","0","42","45","yes","1024"
"2416","361","undefined","undefined","undefined","undefined","#e6e6e6","yes","2500","xpyriment","legacy","legacy","0","uniform","undefined","undefined","undefined","74","NA","74","0","0","74","NA","0","0","0","74","74","0","74","0","74","0","0","74","0","0","74","0","0","Fr 01 Jun 2018 12:13:55 CEST","A template containing a practice and an experimental phase","yes","195","faces.osexp","/home/vlab-eeg2-linux/Desktop/countface","y","m053.gif","495","no","Courier New","no","32","no","black","no","yes","768","legacy","74","74","0","/home/vlab-eeg2-linux/Desktop/countface/subject-0-marie-faces-asaold.csv","xpyriment","Kafkaesque Koffka","3.2.2b1","495","yes","0","return","NA","return","return","return","3272","NA","10549","35881","3272","2","legacy","","1024","2","48000","-16","experiment","0","even","no","345378","NA","342878","49853","49853","341818","NA","NA","NA","3310","342681","342681","NA","341818","3365","345378","49845","13918","249712","NA","3310","341815","NA","49799","Ingwer","0","0","0","42","45","yes","1024"
"2162","219","undefined","undefined","undefined","undefined","#e6e6e6","yes","2500","xpyriment","legacy","legacy","0","uniform","undefined","undefined","undefined","75","NA","75","0","0","75","NA","0","0","0","75","75","0","75","0","75","0","0","75","0","0","75","0","0","Fr 01 Jun 2018 12:13:55 CEST","A template containing a practice and an experimental phase","yes","195","faces.osexp","/home/vlab-eeg2-linux/Desktop/countface","y","f074.gif","495","no","Courier New","no","32","no","black","no","yes","768","legacy","75","75","0","/home/vlab-eeg2-linux/Desktop/countface/subject-0-marie-faces-asaold.csv","xpyriment","Kafkaesque Koffka","3.2.2b1","495","yes","0","return","NA","return","return","return","3272","NA","10549","35881","3272","2","legacy","","1024","2","48000","-16","experiment","0","even","no","349240","NA","346740","49853","49853","345821","NA","NA","NA","3310","346542","346542","NA","345821","3365","349240","49845","13918","249712","NA","3310","345818","NA","49799","Ingwer","0","0","0","42","45","yes","1024"
"2190","325","undefined","undefined","undefined","undefined","#e6e6e6","yes","2500","xpyriment","legacy","legacy","0","uniform","undefined","undefined","undefined","76","NA","76","0","0","76","NA","0","0","0","76","76","0","76","0","76","0","0","76","0","0","76","0","0","Fr 01 Jun 2018 12:13:55 CEST","A template containing a practice and an experimental phase","yes","195","faces.osexp","/home/vlab-eeg2-linux/Desktop/countface","y","f065.gif","495","no","Courier New","no","32","no","black","no","yes","768","legacy","76","76","0","/home/vlab-eeg2-linux/Desktop/countface/subject-0-marie-faces-asaold.csv","xpyriment","Kafkaesque Koffka","3.2.2b1","495","yes","0","return","NA","return","return","return","3272","NA","10549","35881","3272","2","legacy","","1024","2","48000","-16","experiment","0","even","no","353208","NA","350707","49853","49853","349684","NA","NA","NA","3310","350510","350510","NA","349684","3365","353208","49845","13918","249712","NA","3310","349680","NA","49799","Ingwer","0","0","0","42","45","yes","1024"
"2034","463","undefined","undefined","undefined","undefined","#e6e6e6","yes","2500","xpyriment","legacy","legacy","0","uniform","undefined","undefined","undefined","77","NA","77","0","0","77","NA","0","0","0","77","77","0","77","0","77","0","0","77","0","0","77","0","0","Fr 01 Jun 2018 12:13:55 CEST","A template containing a practice and an experimental phase","yes","195","faces.osexp","/home/vlab-eeg2-linux/Desktop/countface","n","054.i.jpg","495","no","Courier New","no","32","no","black","no","yes","768","legacy","77","77","0","/home/vlab-eeg2-linux/Desktop/countface/subject-0-marie-faces-asaold.csv","xpyriment","Kafkaesque Koffka","3.2.2b1","495","yes","0","return","NA","return","return","return","3272","NA","10549","35881","3272","2","legacy","","1024","2","48000","-16","experiment","0","even","no","357317","NA","354817","49853","49853","353655","NA","NA","NA","3310","354619","354619","NA","353654","3365","357317","49845","13918","249712","NA","3310","353651","NA","49799","Ingwer","0","0","0","42","45","yes","1024"
"2136","340","undefined","undefined","undefined","undefined","#e6e6e6","yes","2500","xpyriment","legacy","legacy","0","uniform","undefined","undefined","undefined","78","NA","78","0","0","78","NA","0","0","0","78","78","0","78","0","78","0","0","78","0","0","78","0","0","Fr 01 Jun 2018 12:13:55 CEST","A template containing a practice and an experimental phase","yes","195","faces.osexp","/home/vlab-eeg2-linux/Desktop/countface","y","f010.gif","495","no","Courier New","no","32","no","black","no","yes","768","legacy","78","78","0","/home/vlab-eeg2-linux/Desktop/countface/subject-0-marie-faces-asaold.csv","xpyriment","Kafkaesque Koffka","3.2.2b1","495","yes","0","return","NA","return","return","return","3272","NA","10549","35881","3272","2","legacy","","1024","2","48000","-16","experiment","0","even","no","361299","NA","358799","49853","49853","357761","NA","NA","NA","3310","358602","358602","NA","357761","3365","361299","49845","13918","249712","NA","3310","357758","NA","49799","Ingwer","0","0","0","42","45","yes","1024"
"2397","247","undefined","undefined","undefined","undefined","#e6e6e6","yes","2500","xpyriment","legacy","legacy","0","uniform","undefined","undefined","undefined","79","NA","79","0","0","79","NA","0","0","0","79","79","0","79","0","79","0","0","79","0","0","79","0","0","Fr 01 Jun 2018 12:13:55 CEST","A template containing a practice and an experimental phase","yes","195","faces.osexp","/home/vlab-eeg2-linux/Desktop/countface","n","image11.i.indoor.gif","495","no","Courier New","no","32","no","black","no","yes","768","legacy","79","79","0","/home/vlab-eeg2-linux/Desktop/countface/subject-0-marie-faces-asaold.csv","xpyriment","Kafkaesque Koffka","3.2.2b1","495","yes","0","return","NA","return","return","return","3272","NA","10549","35881","3272","2","legacy","","1024","2","48000","-16","experiment","0","even","no","365187","NA","362687","49853","49853","361742","NA","NA","NA","3310","362490","362490","NA","361742","3365","365187","49845","13918","249712","NA","3310","361738","NA","49799","Ingwer","0","0","0","42","45","yes","1024"
"2044","289","undefined","undefined","undefined","undefined","#e6e6e6","yes","2500","xpyriment","legacy","legacy","0","uniform","undefined","undefined","undefined","80","NA","80","0","0","80","NA","0","0","0","80","80","0","80","0","80","0","0","80","0","0","80","0","0","Fr 01 Jun 2018 12:13:55 CEST","A template containing a practice and an experimental phase","yes","195","faces.osexp","/home/vlab-eeg2-linux/Desktop/countface","n","images15.gif","495","no","Courier New","no","32","no","black","no","yes","768","legacy","80","80","0","/home/vlab-eeg2-linux/Desktop/countface/subject-0-marie-faces-asaold.csv","xpyriment","Kafkaesque Koffka","3.2.2b1","495","yes","0","return","NA","return","return","return","3272","NA","10549","35881","3272","2","legacy","","1024","2","48000","-16","experiment","0","even","no","369115","NA","366614","49853","49853","365625","NA","NA","NA","3310","366417","366417","NA","365624","3365","369115","49845","13918","249712","NA","3310","365621","NA","49799","Ingwer","0","0","0","42","45","yes","1024"
"2500","230","undefined","undefined","undefined","undefined","#e6e6e6","yes","2500","xpyriment","legacy","legacy","0","uniform","undefined","undefined","undefined","81","NA","81","0","0","81","NA","0","0","0","81","81","0","81","0","81","0","0","81","0","0","81","0","0","Fr 01 Jun 2018 12:13:55 CEST","A template containing a practice and an experimental phase","yes","195","faces.osexp","/home/vlab-eeg2-linux/Desktop/countface","n","new9.gif","495","no","Courier New","no","32","no","black","no","yes","768","legacy","81","81","0","/home/vlab-eeg2-linux/Desktop/countface/subject-0-marie-faces-asaold.csv","xpyriment","Kafkaesque Koffka","3.2.2b1","495","yes","0","return","NA","return","return","return","3272","NA","10549","35881","3272","2","legacy","","1024","2","48000","-16","experiment","0","even","no","372978","NA","370478","49853","49853","369548","NA","NA","NA","3310","370280","370280","NA","369548","3365","372978","49845","13918","249712","NA","3310","369545","NA","49799","Ingwer","0","0","0","42","45","yes","1024"
"2053","263","undefined","undefined","undefined","undefined","#e6e6e6","yes","2500","xpyriment","legacy","legacy","0","uniform","undefined","undefined","undefined","82","NA","82","0","0","82","NA","0","0","0","82","82","0","82","0","82","0","0","82","0","0","82","0","0","Fr 01 Jun 2018 12:13:55 CEST","A template containing a practice and an experimental phase","yes","195","faces.osexp","/home/vlab-eeg2-linux/Desktop/countface","n","025.i.jpg","495","no","Courier New","no","32","no","black","no","yes","768","legacy","82","82","0","/home/vlab-eeg2-linux/Desktop/countface/subject-0-marie-faces-asaold.csv","xpyriment","Kafkaesque Koffka","3.2.2b1","495","yes","0","return","NA","return","return","return","3272","NA","10549","35881","3272","2","legacy","","1024","2","48000","-16","experiment","0","even","no","376884","NA","374384","49853","49853","373423","NA","NA","NA","3310","374187","374187","NA","373423","3365","376884","49845","13918","249712","NA","3310","373419","NA","49799","Ingwer","0","0","0","42","45","yes","1024"
"2404","52","undefined","undefined","undefined","undefined","#e6e6e6","yes","2500","xpyriment","legacy","legacy","0","uniform","undefined","undefined","undefined","83","NA","83","0","0","83","NA","0","0","0","83","83","0","83","0","83","0","0","83","0","0","83","0","0","Fr 01 Jun 2018 12:13:55 CEST","A template containing a practice and an experimental phase","yes","195","faces.osexp","/home/vlab-eeg2-linux/Desktop/countface","y","m065.gif","495","no","Courier New","no","32","no","black","no","yes","768","legacy","83","83","0","/home/vlab-eeg2-linux/Desktop/countface/subject-0-marie-faces-asaold.csv","xpyriment","Kafkaesque Koffka","3.2.2b1","495","yes","0","return","NA","return","return","return","3272","NA","10549","35881","3272","2","legacy","","1024","2","48000","-16","experiment","0","even","no","380583","NA","378083","49853","49853","377332","NA","NA","NA","3310","377885","377885","NA","377332","3365","380583","49845","13918","249712","NA","3310","377329","NA","49799","Ingwer","0","0","0","42","45","yes","1024"
"2465","166","undefined","undefined","undefined","undefined","#e6e6e6","yes","2500","xpyriment","legacy","legacy","0","uniform","undefined","undefined","undefined","84","NA","84","0","0","84","NA","0","0","0","84","84","0","84","0","84","0","0","84","0","0","84","0","0","Fr 01 Jun 2018 12:13:55 CEST","A template containing a practice and an experimental phase","yes","195","faces.osexp","/home/vlab-eeg2-linux/Desktop/countface","n","033.i.jpg","495","no","Courier New","no","32","no","black","no","yes","768","legacy","84","84","0","/home/vlab-eeg2-linux/Desktop/countface/subject-0-marie-faces-asaold.csv","xpyriment","Kafkaesque Koffka","3.2.2b1","495","yes","0","return","NA","return","return","return","3272","NA","10549","35881","3272","2","legacy","","1024","2","48000","-16","experiment","0","even","no","384388","NA","381888","49853","49853","381024","NA","NA","NA","3310","381691","381691","NA","381024","3365","384388","49845","13918","249712","NA","3310","381021","NA","49799","Ingwer","0","0","0","42","45","yes","1024"
"2289","418","undefined","undefined","undefined","undefined","#e6e6e6","yes","2500","xpyriment","legacy","legacy","0","uniform","undefined","undefined","undefined","85","NA","85","0","0","85","NA","0","0","0","85","85","0","85","0","85","0","0","85","0","0","85","0","0","Fr 01 Jun 2018 12:13:55 CEST","A template containing a practice and an experimental phase","yes","195","faces.osexp","/home/vlab-eeg2-linux/Desktop/countface","n","image4.i.fen.gif","495","no","Courier New","no","32","no","black","no","yes","768","legacy","85","85","0","/home/vlab-eeg2-linux/Desktop/countface/subject-0-marie-faces-asaold.csv","xpyriment","Kafkaesque Koffka","3.2.2b1","495","yes","0","return","NA","return","return","return","3272","NA","10549","35881","3272","2","legacy","","1024","2","48000","-16","experiment","0","even","no","388454","NA","385954","49853","49853","384837","NA","NA","NA","3310","385756","385756","NA","384837","3365","388454","49845","13918","249712","NA","3310","384833","NA","49799","Ingwer","0","0","0","42","45","yes","1024"
"2015","447","undefined","undefined","undefined","undefined","#e6e6e6","yes","2500","xpyriment","legacy","legacy","0","uniform","undefined","undefined","undefined","86","NA","86","0","0","86","NA","0","0","0","86","86","0","86","0","86","0","0","86","0","0","86","0","0","Fr 01 Jun 2018 12:13:55 CEST","A template containing a practice and an experimental phase","yes","195","faces.osexp","/home/vlab-eeg2-linux/Desktop/countface","y","f061.gif","495","no","Courier New","no","32","no","black","no","yes","768","legacy","86","86","0","/home/vlab-eeg2-linux/Desktop/countface/subject-0-marie-faces-asaold.csv","xpyriment","Kafkaesque Koffka","3.2.2b1","495","yes","0","return","NA","return","return","return","3272","NA","10549","35881","3272","2","legacy","","1024","2","48000","-16","experiment","0","even","no","392543","NA","390043","49853","49853","388897","NA","NA","NA","3310","389846","389846","NA","388897","3365","392543","49845","13918","249712","NA","3310","388893","NA","49799","Ingwer","0","0","0","42","45","yes","1024"
"2047","116","undefined","undefined","undefined","undefined","#e6e6e6","yes","2500","xpyriment","legacy","legacy","0","uniform","undefined","undefined","undefined","87","NA","87","0","0","87","NA","0","0","0","87","87","0","87","0","87","0","0","87","0","0","87","0","0","Fr 01 Jun 2018 12:13:55 CEST","A template containing a practice and an experimental phase","yes","195","faces.osexp","/home/vlab-eeg2-linux/Desktop/countface","n","047.i.jpg","495","no","Courier New","no","32","no","black","no","yes","768","legacy","87","87","0","/home/vlab-eeg2-linux/Desktop/countface/subject-0-marie-faces-asaold.csv","xpyriment","Kafkaesque Koffka","3.2.2b1","495","yes","0","return","NA","return","return","return","3272","NA","10549","35881","3272","2","legacy","","1024","2","48000","-16","experiment","0","even","no","396311","NA","393811","49853","49853","392997","NA","NA","NA","3310","393614","393614","NA","392996","3365","396311","49845","13918","249712","NA","3310","392993","NA","49799","Ingwer","0","0","0","42","45","yes","1024"
"2097","150","undefined","undefined","undefined","undefined","#e6e6e6","yes","2500","xpyriment","legacy","legacy","0","uniform","undefined","undefined","undefined","88","NA","88","0","0","88","NA","0","0","0","88","88","0","88","0","88","0","0","88","0","0","88","0","0","Fr 01 Jun 2018 12:13:55 CEST","A template containing a practice and an experimental phase","yes","195","faces.osexp","/home/vlab-eeg2-linux/Desktop/countface","n","015.i.jpg","495","no","Courier New","no","32","no","black","no","yes","768","legacy","88","88","0","/home/vlab-eeg2-linux/Desktop/countface/subject-0-marie-faces-asaold.csv","xpyriment","Kafkaesque Koffka","3.2.2b1","495","yes","0","return","NA","return","return","return","3272","NA","10549","35881","3272","2","legacy","","1024","2","48000","-16","experiment","0","even","no","400107","NA","397607","49853","49853","396758","NA","NA","NA","3310","397410","397410","NA","396758","3365","400107","49845","13918","249712","NA","3310","396755","NA","49799","Ingwer","0","0","0","42","45","yes","1024"
"2156","435","undefined","undefined","undefined","undefined","#e6e6e6","yes","2500","xpyriment","legacy","legacy","0","uniform","undefined","undefined","undefined","89","NA","89","0","0","89","NA","0","0","0","89","89","0","89","0","89","0","0","89","0","0","89","0","0","Fr 01 Jun 2018 12:13:55 CEST","A template containing a practice and an experimental phase","yes","195","faces.osexp","/home/vlab-eeg2-linux/Desktop/countface","n","stereo12.gif","495","no","Courier New","no","32","no","black","no","yes","768","legacy","89","89","0","/home/vlab-eeg2-linux/Desktop/countface/subject-0-marie-faces-asaold.csv","xpyriment","Kafkaesque Koffka","3.2.2b1","495","yes","0","return","NA","return","return","return","3272","NA","10549","35881","3272","2","legacy","","1024","2","48000","-16","experiment","0","even","no","404183","NA","401683","49853","49853","400549","NA","NA","NA","3310","401486","401486","NA","400548","3365","404183","49845","13918","249712","NA","3310","400545","NA","49799","Ingwer","0","0","0","42","45","yes","1024"
"2393","293","undefined","undefined","undefined","undefined","#e6e6e6","yes","2500","xpyriment","legacy","legacy","0","uniform","undefined","undefined","undefined","90","NA","90","0","0","90","NA","0","0","0","90","90","0","90","0","90","0","0","90","0","0","90","0","0","Fr 01 Jun 2018 12:13:55 CEST","A template containing a practice and an experimental phase","yes","195","faces.osexp","/home/vlab-eeg2-linux/Desktop/countface","y","f011.gif","495","no","Courier New","no","32","no","black","no","yes","768","legacy","90","90","0","/home/vlab-eeg2-linux/Desktop/countface/subject-0-marie-faces-asaold.csv","xpyriment","Kafkaesque Koffka","3.2.2b1","495","yes","0","return","NA","return","return","return","3272","NA","10549","35881","3272","2","legacy","","1024","2","48000","-16","experiment","0","even","no","408120","NA","405620","49853","49853","404628","NA","NA","NA","3310","405423","405423","NA","404628","3365","408120","49845","13918","249712","NA","3310","404625","NA","49799","Ingwer","0","0","0","42","45","yes","1024"
"2475","152","undefined","undefined","undefined","undefined","#e6e6e6","yes","2500","xpyriment","legacy","legacy","0","uniform","undefined","undefined","undefined","91","NA","91","0","0","91","NA","0","0","0","91","91","0","91","0","91","0","0","91","0","0","91","0","0","Fr 01 Jun 2018 12:13:55 CEST","A template containing a practice and an experimental phase","yes","195","faces.osexp","/home/vlab-eeg2-linux/Desktop/countface","y","m090.gif","495","no","Courier New","no","32","no","black","no","yes","768","legacy","91","91","0","/home/vlab-eeg2-linux/Desktop/countface/subject-0-marie-faces-asaold.csv","xpyriment","Kafkaesque Koffka","3.2.2b1","495","yes","0","return","NA","return","return","return","3272","NA","10549","35881","3272","2","legacy","","1024","2","48000","-16","experiment","0","even","no","411913","NA","409413","49853","49853","408562","NA","NA","NA","3310","409216","409216","NA","408562","3365","411913","49845","13918","249712","NA","3310","408559","NA","49799","Ingwer","0","0","0","42","45","yes","1024"
"2195","304","undefined","undefined","undefined","undefined","#e6e6e6","yes","2500","xpyriment","legacy","legacy","0","uniform","undefined","undefined","undefined","92","NA","92","0","0","92","NA","0","0","0","92","92","0","92","0","92","0","0","92","0","0","92","0","0","Fr 01 Jun 2018 12:13:55 CEST","A template containing a practice and an experimental phase","yes","195","faces.osexp","/home/vlab-eeg2-linux/Desktop/countface","y","f007.gif","495","no","Courier New","no","32","no","black","no","yes","768","legacy","92","92","0","/home/vlab-eeg2-linux/Desktop/countface/subject-0-marie-faces-asaold.csv","xpyriment","Kafkaesque Koffka","3.2.2b1","495","yes","0","return","NA","return","return","return","3272","NA","10549","35881","3272","2","legacy","","1024","2","48000","-16","experiment","0","even","no","415863","NA","413363","49853","49853","412361","NA","NA","NA","3310","413166","413166","NA","412360","3365","415863","49845","13918","249712","NA","3310","412357","NA","49799","Ingwer","0","0","0","42","45","yes","1024"
"2091","191","undefined","undefined","undefined","undefined","#e6e6e6","yes","2500","xpyriment","legacy","legacy","0","uniform","undefined","undefined","undefined","93","NA","93","0","0","93","NA","0","0","0","93","93","0","93","0","93","0","0","93","0","0","93","0","0","Fr 01 Jun 2018 12:13:55 CEST","A template containing a practice and an experimental phase","yes","195","faces.osexp","/home/vlab-eeg2-linux/Desktop/countface","n","004.i.jpg","495","no","Courier New","no","32","no","black","no","yes","768","legacy","93","93","0","/home/vlab-eeg2-linux/Desktop/countface/subject-0-marie-faces-asaold.csv","xpyriment","Kafkaesque Koffka","3.2.2b1","495","yes","0","return","NA","return","return","return","3272","NA","10549","35881","3272","2","legacy","","1024","2","48000","-16","experiment","0","even","no","419694","NA","417193","49853","49853","416304","NA","NA","NA","3310","416996","416996","NA","416303","3365","419694","49845","13918","249712","NA","3310","416300","NA","49799","Ingwer","0","0","0","42","45","yes","1024"
"2180","92","undefined","undefined","undefined","undefined","#e6e6e6","yes","2500","xpyriment","legacy","legacy","0","uniform","undefined","undefined","undefined","94","NA","94","0","0","94","NA","0","0","0","94","94","0","94","0","94","0","0","94","0","0","94","0","0","Fr 01 Jun 2018 12:13:55 CEST","A template containing a practice and an experimental phase","yes","195","faces.osexp","/home/vlab-eeg2-linux/Desktop/countface","n","021.i.jpg","495","no","Courier New","no","32","no","black","no","yes","768","legacy","94","94","0","/home/vlab-eeg2-linux/Desktop/countface/subject-0-marie-faces-asaold.csv","xpyriment","Kafkaesque Koffka","3.2.2b1","495","yes","0","return","NA","return","return","return","3272","NA","10549","35881","3272","2","legacy","","1024","2","48000","-16","experiment","0","even","no","423419","NA","420919","49853","49853","420129","NA","NA","NA","3310","420722","420722","NA","420129","3365","423419","49845","13918","249712","NA","3310","420126","NA","49799","Ingwer","0","0","0","42","45","yes","1024"
